STUDYID,USUBJID,SUBJID,SITEID,QSSEQ,TRTP,TRTPN,TRTA,TRTAN,RANDFL,SAFFL,MITTFL,PPROTFL,TRTSDT,TRTEDT,VISITNUM,VISIT,QSDTC,ADT,ADY,ADTF,AVISIT,AVISITN,PARAM,PARAMCD,PARAMN,PARAMTYP,AVAL,BASE,CHG,PCHG,DTYPE,AWRANGE,AWTARGET,AWTDIFF,AWLO,AWHI,AWU,ABLFL,ANL01FL,CRIT1,CRIT1FL,CRIT2,CRIT2FL,aval_temp,base_temp
BBC,BBC-10-041,041,10,9,ARM B,2,ARM B,2,Y,N,N,N,,,1,DAY 1,2006-12-20,20DEC2006,,,,,"Area Score, Upper Extremities",ASUEX,1,,1,,,,,,,,,,,,,,,,,1,
BBC,BBC-10-041,041,10,5,ARM B,2,ARM B,2,Y,N,N,N,,,1,DAY 1,2006-12-20,20DEC2006,,,,,"Area Score, Trunk",ASTRUNK,2,,0,,,,,,,,,,,,,,,,,0,
BBC,BBC-10-041,041,10,1,ARM B,2,ARM B,2,Y,N,N,N,,,1,DAY 1,2006-12-20,20DEC2006,,,,,"Area Score, Lower Extremities",ASLEX,3,,1,,,,,,,,,,,,,,,,,1,
BBC,BBC-10-041,041,10,10,ARM B,2,ARM B,2,Y,N,N,N,,,1,DAY 1,2006-12-20,20DEC2006,,,,,"Erythema, Upper Extremities",ERUEX,4,,2,,,,,,,,,,,,,,,,,2,
BBC,BBC-10-041,041,10,6,ARM B,2,ARM B,2,Y,N,N,N,,,1,DAY 1,2006-12-20,20DEC2006,,,,,"Erythema, Trunk",ERTRUNK,5,,0,,,,,,,,,,,,,,,,,0,
BBC,BBC-10-041,041,10,2,ARM B,2,ARM B,2,Y,N,N,N,,,1,DAY 1,2006-12-20,20DEC2006,,,,,"Erythema, Lower Extremities",ERLEX,6,,3,,,,,,,,,,,,,,,,,3,
BBC,BBC-10-041,041,10,12,ARM B,2,ARM B,2,Y,N,N,N,,,1,DAY 1,2006-12-20,20DEC2006,,,,,"Thickness, Upper Extremities",THKUEX,7,,2,,,,,,,,,,,,,,,,,2,
BBC,BBC-10-041,041,10,8,ARM B,2,ARM B,2,Y,N,N,N,,,1,DAY 1,2006-12-20,20DEC2006,,,,,"Thickness, Trunk",THKTRUNK,8,,0,,,,,,,,,,,,,,,,,0,
BBC,BBC-10-041,041,10,4,ARM B,2,ARM B,2,Y,N,N,N,,,1,DAY 1,2006-12-20,20DEC2006,,,,,"Thickness, Lower Extremities",THKLEX,9,,3,,,,,,,,,,,,,,,,,3,
BBC,BBC-10-041,041,10,11,ARM B,2,ARM B,2,Y,N,N,N,,,1,DAY 1,2006-12-20,20DEC2006,,,,,"Scale, Upper Extremities",SCUEX,10,,2,,,,,,,,,,,,,,,,,2,
BBC,BBC-10-041,041,10,7,ARM B,2,ARM B,2,Y,N,N,N,,,1,DAY 1,2006-12-20,20DEC2006,,,,,"Scale, Trunk",SCTRUNK,11,,0,,,,,,,,,,,,,,,,,0,
BBC,BBC-10-041,041,10,3,ARM B,2,ARM B,2,Y,N,N,N,,,1,DAY 1,2006-12-20,20DEC2006,,,,,"Scale, Lower Extremities",SCLEX,12,,4,,,,,,,,,,,,,,,,,4,
BBC,BBC-10-041,041,10,12,ARM B,2,ARM B,2,Y,N,N,N,,,1,DAY 1,2006-12-20,20DEC2006,,,,,Area Adjusted Psoriasis Area and Severity Index,PASISCOR,13,DERIVED,5.7,,,,,,,,,,,,,,,,,5.7,
BBC,BBC-10-042,042,10,63,ARM C,3,ARM C,3,Y,Y,Y,Y,10JAN2007,13APR2007,16,WEEK 16,2007-05-02,02MAY2007,113,,,,"Area Score, Upper Extremities",ASUEX,1,,1,1,0,0,,,,,,,,,,,,,,1,1
BBC,BBC-10-042,042,10,57,ARM C,3,ARM C,3,Y,Y,Y,Y,10JAN2007,13APR2007,1,DAY 1,2007-01-10,10JAN2007,1,,Day 1 Baseline,0,"Area Score, Upper Extremities",ASUEX,1,,1,1,,,,,,,,,,Y,Y,,,,,,1
BBC,BBC-10-042,042,10,58,ARM C,3,ARM C,3,Y,Y,Y,Y,10JAN2007,13APR2007,2,WEEK 2,2007-01-24,24JAN2007,15,,Week 2,2,"Area Score, Upper Extremities",ASUEX,1,,1,1,0,0,,8-22 DAYS,15,0,8,22,DAYS,,Y,,,,,1,1
BBC,BBC-10-042,042,10,59,ARM C,3,ARM C,3,Y,Y,Y,Y,10JAN2007,13APR2007,4,WEEK 4,2007-02-09,09FEB2007,31,,Week 4,4,"Area Score, Upper Extremities",ASUEX,1,,1,1,0,0,,23-36 DAYS,29,2,23,36,DAYS,,Y,,,,,1,1
BBC,BBC-10-042,042,10,60,ARM C,3,ARM C,3,Y,Y,Y,Y,10JAN2007,13APR2007,6,WEEK 6,2007-02-23,23FEB2007,45,,Week 6,6,"Area Score, Upper Extremities",ASUEX,1,,1,1,0,0,,37-50 DAYS,43,2,37,50,DAYS,,Y,,,,,1,1
BBC,BBC-10-042,042,10,61,ARM C,3,ARM C,3,Y,Y,Y,Y,10JAN2007,13APR2007,8,WEEK 8,2007-03-12,12MAR2007,62,,Week 8,8,"Area Score, Upper Extremities",ASUEX,1,,1,1,0,0,,51-71 DAYS,57,5,51,71,DAYS,,Y,,,,,1,1
BBC,BBC-10-042,042,10,62,ARM C,3,ARM C,3,Y,Y,Y,Y,10JAN2007,13APR2007,12,WEEK 12,2007-04-13,13APR2007,94,,Week 12,12,"Area Score, Upper Extremities",ASUEX,1,,1,1,0,0,,72-99 DAYS,85,9,72,99,DAYS,,Y,,,,,1,1
BBC,BBC-10-042,042,10,35,ARM C,3,ARM C,3,Y,Y,Y,Y,10JAN2007,13APR2007,16,WEEK 16,2007-05-02,02MAY2007,113,,,,"Area Score, Trunk",ASTRUNK,2,,0,0,0,,,,,,,,,,,,,,,0,0
BBC,BBC-10-042,042,10,29,ARM C,3,ARM C,3,Y,Y,Y,Y,10JAN2007,13APR2007,1,DAY 1,2007-01-10,10JAN2007,1,,Day 1 Baseline,0,"Area Score, Trunk",ASTRUNK,2,,0,0,,,,,,,,,,Y,Y,,,,,,0
BBC,BBC-10-042,042,10,30,ARM C,3,ARM C,3,Y,Y,Y,Y,10JAN2007,13APR2007,2,WEEK 2,2007-01-24,24JAN2007,15,,Week 2,2,"Area Score, Trunk",ASTRUNK,2,,0,0,0,,,8-22 DAYS,15,0,8,22,DAYS,,Y,,,,,0,0
BBC,BBC-10-042,042,10,31,ARM C,3,ARM C,3,Y,Y,Y,Y,10JAN2007,13APR2007,4,WEEK 4,2007-02-09,09FEB2007,31,,Week 4,4,"Area Score, Trunk",ASTRUNK,2,,0,0,0,,,23-36 DAYS,29,2,23,36,DAYS,,Y,,,,,0,0
BBC,BBC-10-042,042,10,32,ARM C,3,ARM C,3,Y,Y,Y,Y,10JAN2007,13APR2007,6,WEEK 6,2007-02-23,23FEB2007,45,,Week 6,6,"Area Score, Trunk",ASTRUNK,2,,0,0,0,,,37-50 DAYS,43,2,37,50,DAYS,,Y,,,,,0,0
BBC,BBC-10-042,042,10,33,ARM C,3,ARM C,3,Y,Y,Y,Y,10JAN2007,13APR2007,8,WEEK 8,2007-03-12,12MAR2007,62,,Week 8,8,"Area Score, Trunk",ASTRUNK,2,,0,0,0,,,51-71 DAYS,57,5,51,71,DAYS,,Y,,,,,0,0
BBC,BBC-10-042,042,10,34,ARM C,3,ARM C,3,Y,Y,Y,Y,10JAN2007,13APR2007,12,WEEK 12,2007-04-13,13APR2007,94,,Week 12,12,"Area Score, Trunk",ASTRUNK,2,,0,0,0,,,72-99 DAYS,85,9,72,99,DAYS,,Y,,,,,0,0
BBC,BBC-10-042,042,10,7,ARM C,3,ARM C,3,Y,Y,Y,Y,10JAN2007,13APR2007,16,WEEK 16,2007-05-02,02MAY2007,113,,,,"Area Score, Lower Extremities",ASLEX,3,,1,1,0,0,,,,,,,,,,,,,,1,1
BBC,BBC-10-042,042,10,1,ARM C,3,ARM C,3,Y,Y,Y,Y,10JAN2007,13APR2007,1,DAY 1,2007-01-10,10JAN2007,1,,Day 1 Baseline,0,"Area Score, Lower Extremities",ASLEX,3,,1,1,,,,,,,,,,Y,Y,,,,,,1
BBC,BBC-10-042,042,10,2,ARM C,3,ARM C,3,Y,Y,Y,Y,10JAN2007,13APR2007,2,WEEK 2,2007-01-24,24JAN2007,15,,Week 2,2,"Area Score, Lower Extremities",ASLEX,3,,1,1,0,0,,8-22 DAYS,15,0,8,22,DAYS,,Y,,,,,1,1
BBC,BBC-10-042,042,10,3,ARM C,3,ARM C,3,Y,Y,Y,Y,10JAN2007,13APR2007,4,WEEK 4,2007-02-09,09FEB2007,31,,Week 4,4,"Area Score, Lower Extremities",ASLEX,3,,1,1,0,0,,23-36 DAYS,29,2,23,36,DAYS,,Y,,,,,1,1
BBC,BBC-10-042,042,10,4,ARM C,3,ARM C,3,Y,Y,Y,Y,10JAN2007,13APR2007,6,WEEK 6,2007-02-23,23FEB2007,45,,Week 6,6,"Area Score, Lower Extremities",ASLEX,3,,1,1,0,0,,37-50 DAYS,43,2,37,50,DAYS,,Y,,,,,1,1
BBC,BBC-10-042,042,10,5,ARM C,3,ARM C,3,Y,Y,Y,Y,10JAN2007,13APR2007,8,WEEK 8,2007-03-12,12MAR2007,62,,Week 8,8,"Area Score, Lower Extremities",ASLEX,3,,1,1,0,0,,51-71 DAYS,57,5,51,71,DAYS,,Y,,,,,1,1
BBC,BBC-10-042,042,10,6,ARM C,3,ARM C,3,Y,Y,Y,Y,10JAN2007,13APR2007,12,WEEK 12,2007-04-13,13APR2007,94,,Week 12,12,"Area Score, Lower Extremities",ASLEX,3,,1,1,0,0,,72-99 DAYS,85,9,72,99,DAYS,,Y,,,,,1,1
BBC,BBC-10-042,042,10,70,ARM C,3,ARM C,3,Y,Y,Y,Y,10JAN2007,13APR2007,16,WEEK 16,2007-05-02,02MAY2007,113,,,,"Erythema, Upper Extremities",ERUEX,4,,3,2,1,50,,,,,,,,,,,,,,3,2
BBC,BBC-10-042,042,10,64,ARM C,3,ARM C,3,Y,Y,Y,Y,10JAN2007,13APR2007,1,DAY 1,2007-01-10,10JAN2007,1,,Day 1 Baseline,0,"Erythema, Upper Extremities",ERUEX,4,,2,2,,,,,,,,,,Y,Y,,,,,,2
BBC,BBC-10-042,042,10,65,ARM C,3,ARM C,3,Y,Y,Y,Y,10JAN2007,13APR2007,2,WEEK 2,2007-01-24,24JAN2007,15,,Week 2,2,"Erythema, Upper Extremities",ERUEX,4,,2,2,0,0,,8-22 DAYS,15,0,8,22,DAYS,,Y,,,,,2,2
BBC,BBC-10-042,042,10,66,ARM C,3,ARM C,3,Y,Y,Y,Y,10JAN2007,13APR2007,4,WEEK 4,2007-02-09,09FEB2007,31,,Week 4,4,"Erythema, Upper Extremities",ERUEX,4,,3,2,1,50,,23-36 DAYS,29,2,23,36,DAYS,,Y,,,,,3,2
BBC,BBC-10-042,042,10,67,ARM C,3,ARM C,3,Y,Y,Y,Y,10JAN2007,13APR2007,6,WEEK 6,2007-02-23,23FEB2007,45,,Week 6,6,"Erythema, Upper Extremities",ERUEX,4,,3,2,1,50,,37-50 DAYS,43,2,37,50,DAYS,,Y,,,,,3,2
BBC,BBC-10-042,042,10,68,ARM C,3,ARM C,3,Y,Y,Y,Y,10JAN2007,13APR2007,8,WEEK 8,2007-03-12,12MAR2007,62,,Week 8,8,"Erythema, Upper Extremities",ERUEX,4,,3,2,1,50,,51-71 DAYS,57,5,51,71,DAYS,,Y,,,,,3,2
BBC,BBC-10-042,042,10,69,ARM C,3,ARM C,3,Y,Y,Y,Y,10JAN2007,13APR2007,12,WEEK 12,2007-04-13,13APR2007,94,,Week 12,12,"Erythema, Upper Extremities",ERUEX,4,,3,2,1,50,,72-99 DAYS,85,9,72,99,DAYS,,Y,,,,,3,2
BBC,BBC-10-042,042,10,42,ARM C,3,ARM C,3,Y,Y,Y,Y,10JAN2007,13APR2007,16,WEEK 16,2007-05-02,02MAY2007,113,,,,"Erythema, Trunk",ERTRUNK,5,,0,0,0,,,,,,,,,,,,,,,0,0
BBC,BBC-10-042,042,10,36,ARM C,3,ARM C,3,Y,Y,Y,Y,10JAN2007,13APR2007,1,DAY 1,2007-01-10,10JAN2007,1,,Day 1 Baseline,0,"Erythema, Trunk",ERTRUNK,5,,0,0,,,,,,,,,,Y,Y,,,,,,0
BBC,BBC-10-042,042,10,37,ARM C,3,ARM C,3,Y,Y,Y,Y,10JAN2007,13APR2007,2,WEEK 2,2007-01-24,24JAN2007,15,,Week 2,2,"Erythema, Trunk",ERTRUNK,5,,0,0,0,,,8-22 DAYS,15,0,8,22,DAYS,,Y,,,,,0,0
BBC,BBC-10-042,042,10,38,ARM C,3,ARM C,3,Y,Y,Y,Y,10JAN2007,13APR2007,4,WEEK 4,2007-02-09,09FEB2007,31,,Week 4,4,"Erythema, Trunk",ERTRUNK,5,,0,0,0,,,23-36 DAYS,29,2,23,36,DAYS,,Y,,,,,0,0
BBC,BBC-10-042,042,10,39,ARM C,3,ARM C,3,Y,Y,Y,Y,10JAN2007,13APR2007,6,WEEK 6,2007-02-23,23FEB2007,45,,Week 6,6,"Erythema, Trunk",ERTRUNK,5,,0,0,0,,,37-50 DAYS,43,2,37,50,DAYS,,Y,,,,,0,0
BBC,BBC-10-042,042,10,40,ARM C,3,ARM C,3,Y,Y,Y,Y,10JAN2007,13APR2007,8,WEEK 8,2007-03-12,12MAR2007,62,,Week 8,8,"Erythema, Trunk",ERTRUNK,5,,0,0,0,,,51-71 DAYS,57,5,51,71,DAYS,,Y,,,,,0,0
BBC,BBC-10-042,042,10,41,ARM C,3,ARM C,3,Y,Y,Y,Y,10JAN2007,13APR2007,12,WEEK 12,2007-04-13,13APR2007,94,,Week 12,12,"Erythema, Trunk",ERTRUNK,5,,0,0,0,,,72-99 DAYS,85,9,72,99,DAYS,,Y,,,,,0,0
BBC,BBC-10-042,042,10,14,ARM C,3,ARM C,3,Y,Y,Y,Y,10JAN2007,13APR2007,16,WEEK 16,2007-05-02,02MAY2007,113,,,,"Erythema, Lower Extremities",ERLEX,6,,3,2,1,50,,,,,,,,,,,,,,3,2
BBC,BBC-10-042,042,10,8,ARM C,3,ARM C,3,Y,Y,Y,Y,10JAN2007,13APR2007,1,DAY 1,2007-01-10,10JAN2007,1,,Day 1 Baseline,0,"Erythema, Lower Extremities",ERLEX,6,,2,2,,,,,,,,,,Y,Y,,,,,,2
BBC,BBC-10-042,042,10,9,ARM C,3,ARM C,3,Y,Y,Y,Y,10JAN2007,13APR2007,2,WEEK 2,2007-01-24,24JAN2007,15,,Week 2,2,"Erythema, Lower Extremities",ERLEX,6,,2,2,0,0,,8-22 DAYS,15,0,8,22,DAYS,,Y,,,,,2,2
BBC,BBC-10-042,042,10,10,ARM C,3,ARM C,3,Y,Y,Y,Y,10JAN2007,13APR2007,4,WEEK 4,2007-02-09,09FEB2007,31,,Week 4,4,"Erythema, Lower Extremities",ERLEX,6,,3,2,1,50,,23-36 DAYS,29,2,23,36,DAYS,,Y,,,,,3,2
BBC,BBC-10-042,042,10,11,ARM C,3,ARM C,3,Y,Y,Y,Y,10JAN2007,13APR2007,6,WEEK 6,2007-02-23,23FEB2007,45,,Week 6,6,"Erythema, Lower Extremities",ERLEX,6,,3,2,1,50,,37-50 DAYS,43,2,37,50,DAYS,,Y,,,,,3,2
BBC,BBC-10-042,042,10,12,ARM C,3,ARM C,3,Y,Y,Y,Y,10JAN2007,13APR2007,8,WEEK 8,2007-03-12,12MAR2007,62,,Week 8,8,"Erythema, Lower Extremities",ERLEX,6,,3,2,1,50,,51-71 DAYS,57,5,51,71,DAYS,,Y,,,,,3,2
BBC,BBC-10-042,042,10,13,ARM C,3,ARM C,3,Y,Y,Y,Y,10JAN2007,13APR2007,12,WEEK 12,2007-04-13,13APR2007,94,,Week 12,12,"Erythema, Lower Extremities",ERLEX,6,,2,2,0,0,,72-99 DAYS,85,9,72,99,DAYS,,Y,,,,,2,2
BBC,BBC-10-042,042,10,84,ARM C,3,ARM C,3,Y,Y,Y,Y,10JAN2007,13APR2007,16,WEEK 16,2007-05-02,02MAY2007,113,,,,"Thickness, Upper Extremities",THKUEX,7,,3,2,1,50,,,,,,,,,,,,,,3,2
BBC,BBC-10-042,042,10,78,ARM C,3,ARM C,3,Y,Y,Y,Y,10JAN2007,13APR2007,1,DAY 1,2007-01-10,10JAN2007,1,,Day 1 Baseline,0,"Thickness, Upper Extremities",THKUEX,7,,2,2,,,,,,,,,,Y,Y,,,,,,2
BBC,BBC-10-042,042,10,79,ARM C,3,ARM C,3,Y,Y,Y,Y,10JAN2007,13APR2007,2,WEEK 2,2007-01-24,24JAN2007,15,,Week 2,2,"Thickness, Upper Extremities",THKUEX,7,,2,2,0,0,,8-22 DAYS,15,0,8,22,DAYS,,Y,,,,,2,2
BBC,BBC-10-042,042,10,80,ARM C,3,ARM C,3,Y,Y,Y,Y,10JAN2007,13APR2007,4,WEEK 4,2007-02-09,09FEB2007,31,,Week 4,4,"Thickness, Upper Extremities",THKUEX,7,,3,2,1,50,,23-36 DAYS,29,2,23,36,DAYS,,Y,,,,,3,2
BBC,BBC-10-042,042,10,81,ARM C,3,ARM C,3,Y,Y,Y,Y,10JAN2007,13APR2007,6,WEEK 6,2007-02-23,23FEB2007,45,,Week 6,6,"Thickness, Upper Extremities",THKUEX,7,,3,2,1,50,,37-50 DAYS,43,2,37,50,DAYS,,Y,,,,,3,2
BBC,BBC-10-042,042,10,82,ARM C,3,ARM C,3,Y,Y,Y,Y,10JAN2007,13APR2007,8,WEEK 8,2007-03-12,12MAR2007,62,,Week 8,8,"Thickness, Upper Extremities",THKUEX,7,,3,2,1,50,,51-71 DAYS,57,5,51,71,DAYS,,Y,,,,,3,2
BBC,BBC-10-042,042,10,83,ARM C,3,ARM C,3,Y,Y,Y,Y,10JAN2007,13APR2007,12,WEEK 12,2007-04-13,13APR2007,94,,Week 12,12,"Thickness, Upper Extremities",THKUEX,7,,3,2,1,50,,72-99 DAYS,85,9,72,99,DAYS,,Y,,,,,3,2
BBC,BBC-10-042,042,10,56,ARM C,3,ARM C,3,Y,Y,Y,Y,10JAN2007,13APR2007,16,WEEK 16,2007-05-02,02MAY2007,113,,,,"Thickness, Trunk",THKTRUNK,8,,0,0,0,,,,,,,,,,,,,,,0,0
BBC,BBC-10-042,042,10,50,ARM C,3,ARM C,3,Y,Y,Y,Y,10JAN2007,13APR2007,1,DAY 1,2007-01-10,10JAN2007,1,,Day 1 Baseline,0,"Thickness, Trunk",THKTRUNK,8,,0,0,,,,,,,,,,Y,Y,,,,,,0
BBC,BBC-10-042,042,10,51,ARM C,3,ARM C,3,Y,Y,Y,Y,10JAN2007,13APR2007,2,WEEK 2,2007-01-24,24JAN2007,15,,Week 2,2,"Thickness, Trunk",THKTRUNK,8,,0,0,0,,,8-22 DAYS,15,0,8,22,DAYS,,Y,,,,,0,0
BBC,BBC-10-042,042,10,52,ARM C,3,ARM C,3,Y,Y,Y,Y,10JAN2007,13APR2007,4,WEEK 4,2007-02-09,09FEB2007,31,,Week 4,4,"Thickness, Trunk",THKTRUNK,8,,0,0,0,,,23-36 DAYS,29,2,23,36,DAYS,,Y,,,,,0,0
BBC,BBC-10-042,042,10,53,ARM C,3,ARM C,3,Y,Y,Y,Y,10JAN2007,13APR2007,6,WEEK 6,2007-02-23,23FEB2007,45,,Week 6,6,"Thickness, Trunk",THKTRUNK,8,,0,0,0,,,37-50 DAYS,43,2,37,50,DAYS,,Y,,,,,0,0
BBC,BBC-10-042,042,10,54,ARM C,3,ARM C,3,Y,Y,Y,Y,10JAN2007,13APR2007,8,WEEK 8,2007-03-12,12MAR2007,62,,Week 8,8,"Thickness, Trunk",THKTRUNK,8,,0,0,0,,,51-71 DAYS,57,5,51,71,DAYS,,Y,,,,,0,0
BBC,BBC-10-042,042,10,55,ARM C,3,ARM C,3,Y,Y,Y,Y,10JAN2007,13APR2007,12,WEEK 12,2007-04-13,13APR2007,94,,Week 12,12,"Thickness, Trunk",THKTRUNK,8,,0,0,0,,,72-99 DAYS,85,9,72,99,DAYS,,Y,,,,,0,0
BBC,BBC-10-042,042,10,28,ARM C,3,ARM C,3,Y,Y,Y,Y,10JAN2007,13APR2007,16,WEEK 16,2007-05-02,02MAY2007,113,,,,"Thickness, Lower Extremities",THKLEX,9,,2,2,0,0,,,,,,,,,,,,,,2,2
BBC,BBC-10-042,042,10,22,ARM C,3,ARM C,3,Y,Y,Y,Y,10JAN2007,13APR2007,1,DAY 1,2007-01-10,10JAN2007,1,,Day 1 Baseline,0,"Thickness, Lower Extremities",THKLEX,9,,2,2,,,,,,,,,,Y,Y,,,,,,2
BBC,BBC-10-042,042,10,23,ARM C,3,ARM C,3,Y,Y,Y,Y,10JAN2007,13APR2007,2,WEEK 2,2007-01-24,24JAN2007,15,,Week 2,2,"Thickness, Lower Extremities",THKLEX,9,,2,2,0,0,,8-22 DAYS,15,0,8,22,DAYS,,Y,,,,,2,2
BBC,BBC-10-042,042,10,24,ARM C,3,ARM C,3,Y,Y,Y,Y,10JAN2007,13APR2007,4,WEEK 4,2007-02-09,09FEB2007,31,,Week 4,4,"Thickness, Lower Extremities",THKLEX,9,,2,2,0,0,,23-36 DAYS,29,2,23,36,DAYS,,Y,,,,,2,2
BBC,BBC-10-042,042,10,25,ARM C,3,ARM C,3,Y,Y,Y,Y,10JAN2007,13APR2007,6,WEEK 6,2007-02-23,23FEB2007,45,,Week 6,6,"Thickness, Lower Extremities",THKLEX,9,,2,2,0,0,,37-50 DAYS,43,2,37,50,DAYS,,Y,,,,,2,2
BBC,BBC-10-042,042,10,26,ARM C,3,ARM C,3,Y,Y,Y,Y,10JAN2007,13APR2007,8,WEEK 8,2007-03-12,12MAR2007,62,,Week 8,8,"Thickness, Lower Extremities",THKLEX,9,,3,2,1,50,,51-71 DAYS,57,5,51,71,DAYS,,Y,,,,,3,2
BBC,BBC-10-042,042,10,27,ARM C,3,ARM C,3,Y,Y,Y,Y,10JAN2007,13APR2007,12,WEEK 12,2007-04-13,13APR2007,94,,Week 12,12,"Thickness, Lower Extremities",THKLEX,9,,1,2,-1,-50,,72-99 DAYS,85,9,72,99,DAYS,,Y,,,,,1,2
BBC,BBC-10-042,042,10,77,ARM C,3,ARM C,3,Y,Y,Y,Y,10JAN2007,13APR2007,16,WEEK 16,2007-05-02,02MAY2007,113,,,,"Scale, Upper Extremities",SCUEX,10,,4,3,1,33.3,,,,,,,,,,,,,,4,3
BBC,BBC-10-042,042,10,71,ARM C,3,ARM C,3,Y,Y,Y,Y,10JAN2007,13APR2007,1,DAY 1,2007-01-10,10JAN2007,1,,Day 1 Baseline,0,"Scale, Upper Extremities",SCUEX,10,,3,3,,,,,,,,,,Y,Y,,,,,,3
BBC,BBC-10-042,042,10,72,ARM C,3,ARM C,3,Y,Y,Y,Y,10JAN2007,13APR2007,2,WEEK 2,2007-01-24,24JAN2007,15,,Week 2,2,"Scale, Upper Extremities",SCUEX,10,,3,3,0,0,,8-22 DAYS,15,0,8,22,DAYS,,Y,,,,,3,3
BBC,BBC-10-042,042,10,73,ARM C,3,ARM C,3,Y,Y,Y,Y,10JAN2007,13APR2007,4,WEEK 4,2007-02-09,09FEB2007,31,,Week 4,4,"Scale, Upper Extremities",SCUEX,10,,3,3,0,0,,23-36 DAYS,29,2,23,36,DAYS,,Y,,,,,3,3
BBC,BBC-10-042,042,10,74,ARM C,3,ARM C,3,Y,Y,Y,Y,10JAN2007,13APR2007,6,WEEK 6,2007-02-23,23FEB2007,45,,Week 6,6,"Scale, Upper Extremities",SCUEX,10,,2,3,-1,-33.3,,37-50 DAYS,43,2,37,50,DAYS,,Y,,,,,2,3
BBC,BBC-10-042,042,10,75,ARM C,3,ARM C,3,Y,Y,Y,Y,10JAN2007,13APR2007,8,WEEK 8,2007-03-12,12MAR2007,62,,Week 8,8,"Scale, Upper Extremities",SCUEX,10,,4,3,1,33.3,,51-71 DAYS,57,5,51,71,DAYS,,Y,,,,,4,3
BBC,BBC-10-042,042,10,76,ARM C,3,ARM C,3,Y,Y,Y,Y,10JAN2007,13APR2007,12,WEEK 12,2007-04-13,13APR2007,94,,Week 12,12,"Scale, Upper Extremities",SCUEX,10,,2,3,-1,-33.3,,72-99 DAYS,85,9,72,99,DAYS,,Y,,,,,2,3
BBC,BBC-10-042,042,10,49,ARM C,3,ARM C,3,Y,Y,Y,Y,10JAN2007,13APR2007,16,WEEK 16,2007-05-02,02MAY2007,113,,,,"Scale, Trunk",SCTRUNK,11,,0,0,0,,,,,,,,,,,,,,,0,0
BBC,BBC-10-042,042,10,43,ARM C,3,ARM C,3,Y,Y,Y,Y,10JAN2007,13APR2007,1,DAY 1,2007-01-10,10JAN2007,1,,Day 1 Baseline,0,"Scale, Trunk",SCTRUNK,11,,0,0,,,,,,,,,,Y,Y,,,,,,0
BBC,BBC-10-042,042,10,44,ARM C,3,ARM C,3,Y,Y,Y,Y,10JAN2007,13APR2007,2,WEEK 2,2007-01-24,24JAN2007,15,,Week 2,2,"Scale, Trunk",SCTRUNK,11,,0,0,0,,,8-22 DAYS,15,0,8,22,DAYS,,Y,,,,,0,0
BBC,BBC-10-042,042,10,45,ARM C,3,ARM C,3,Y,Y,Y,Y,10JAN2007,13APR2007,4,WEEK 4,2007-02-09,09FEB2007,31,,Week 4,4,"Scale, Trunk",SCTRUNK,11,,0,0,0,,,23-36 DAYS,29,2,23,36,DAYS,,Y,,,,,0,0
BBC,BBC-10-042,042,10,46,ARM C,3,ARM C,3,Y,Y,Y,Y,10JAN2007,13APR2007,6,WEEK 6,2007-02-23,23FEB2007,45,,Week 6,6,"Scale, Trunk",SCTRUNK,11,,0,0,0,,,37-50 DAYS,43,2,37,50,DAYS,,Y,,,,,0,0
BBC,BBC-10-042,042,10,47,ARM C,3,ARM C,3,Y,Y,Y,Y,10JAN2007,13APR2007,8,WEEK 8,2007-03-12,12MAR2007,62,,Week 8,8,"Scale, Trunk",SCTRUNK,11,,0,0,0,,,51-71 DAYS,57,5,51,71,DAYS,,Y,,,,,0,0
BBC,BBC-10-042,042,10,48,ARM C,3,ARM C,3,Y,Y,Y,Y,10JAN2007,13APR2007,12,WEEK 12,2007-04-13,13APR2007,94,,Week 12,12,"Scale, Trunk",SCTRUNK,11,,0,0,0,,,72-99 DAYS,85,9,72,99,DAYS,,Y,,,,,0,0
BBC,BBC-10-042,042,10,21,ARM C,3,ARM C,3,Y,Y,Y,Y,10JAN2007,13APR2007,16,WEEK 16,2007-05-02,02MAY2007,113,,,,"Scale, Lower Extremities",SCLEX,12,,2,3,-1,-33.3,,,,,,,,,,,,,,2,3
BBC,BBC-10-042,042,10,15,ARM C,3,ARM C,3,Y,Y,Y,Y,10JAN2007,13APR2007,1,DAY 1,2007-01-10,10JAN2007,1,,Day 1 Baseline,0,"Scale, Lower Extremities",SCLEX,12,,3,3,,,,,,,,,,Y,Y,,,,,,3
BBC,BBC-10-042,042,10,16,ARM C,3,ARM C,3,Y,Y,Y,Y,10JAN2007,13APR2007,2,WEEK 2,2007-01-24,24JAN2007,15,,Week 2,2,"Scale, Lower Extremities",SCLEX,12,,3,3,0,0,,8-22 DAYS,15,0,8,22,DAYS,,Y,,,,,3,3
BBC,BBC-10-042,042,10,17,ARM C,3,ARM C,3,Y,Y,Y,Y,10JAN2007,13APR2007,4,WEEK 4,2007-02-09,09FEB2007,31,,Week 4,4,"Scale, Lower Extremities",SCLEX,12,,2,3,-1,-33.3,,23-36 DAYS,29,2,23,36,DAYS,,Y,,,,,2,3
BBC,BBC-10-042,042,10,18,ARM C,3,ARM C,3,Y,Y,Y,Y,10JAN2007,13APR2007,6,WEEK 6,2007-02-23,23FEB2007,45,,Week 6,6,"Scale, Lower Extremities",SCLEX,12,,2,3,-1,-33.3,,37-50 DAYS,43,2,37,50,DAYS,,Y,,,,,2,3
BBC,BBC-10-042,042,10,19,ARM C,3,ARM C,3,Y,Y,Y,Y,10JAN2007,13APR2007,8,WEEK 8,2007-03-12,12MAR2007,62,,Week 8,8,"Scale, Lower Extremities",SCLEX,12,,4,3,1,33.3,,51-71 DAYS,57,5,51,71,DAYS,,Y,,,,,4,3
BBC,BBC-10-042,042,10,20,ARM C,3,ARM C,3,Y,Y,Y,Y,10JAN2007,13APR2007,12,WEEK 12,2007-04-13,13APR2007,94,,Week 12,12,"Scale, Lower Extremities",SCLEX,12,,3,3,0,0,,72-99 DAYS,85,9,72,99,DAYS,,Y,,,,,3,3
BBC,BBC-10-042,042,10,84,ARM C,3,ARM C,3,Y,Y,Y,Y,10JAN2007,13APR2007,16,WEEK 16,2007-05-02,02MAY2007,113,,,,Area Adjusted Psoriasis Area and Severity Index,PASISCOR,13,DERIVED,5.2,4.6,0.6,13,,,,,,,,,,,,,,5.2,4.6
BBC,BBC-10-042,042,10,78,ARM C,3,ARM C,3,Y,Y,Y,Y,10JAN2007,13APR2007,1,DAY 1,2007-01-10,10JAN2007,1,,Day 1 Baseline,0,Area Adjusted Psoriasis Area and Severity Index,PASISCOR,13,DERIVED,4.6,4.6,,,,,,,,,,Y,Y,,,,,,4.6
BBC,BBC-10-042,042,10,79,ARM C,3,ARM C,3,Y,Y,Y,Y,10JAN2007,13APR2007,2,WEEK 2,2007-01-24,24JAN2007,15,,Week 2,2,Area Adjusted Psoriasis Area and Severity Index,PASISCOR,13,DERIVED,4.6,4.6,0,0,,8-22 DAYS,15,0,8,22,DAYS,,Y,,,,,4.6,4.6
BBC,BBC-10-042,042,10,80,ARM C,3,ARM C,3,Y,Y,Y,Y,10JAN2007,13APR2007,4,WEEK 4,2007-02-09,09FEB2007,31,,Week 4,4,Area Adjusted Psoriasis Area and Severity Index,PASISCOR,13,DERIVED,5,4.6,0.4,8.7,,23-36 DAYS,29,2,23,36,DAYS,,Y,,,,,5,4.6
BBC,BBC-10-042,042,10,81,ARM C,3,ARM C,3,Y,Y,Y,Y,10JAN2007,13APR2007,6,WEEK 6,2007-02-23,23FEB2007,45,,Week 6,6,Area Adjusted Psoriasis Area and Severity Index,PASISCOR,13,DERIVED,4.8,4.6,0.2,4.3,,37-50 DAYS,43,2,37,50,DAYS,,Y,,,,,4.8,4.6
BBC,BBC-10-042,042,10,82,ARM C,3,ARM C,3,Y,Y,Y,Y,10JAN2007,13APR2007,8,WEEK 8,2007-03-12,12MAR2007,62,,Week 8,8,Area Adjusted Psoriasis Area and Severity Index,PASISCOR,13,DERIVED,6.5,4.6,1.9,41.3,,51-71 DAYS,57,5,51,71,DAYS,,Y,,,,,6.5,4.6
BBC,BBC-10-042,042,10,83,ARM C,3,ARM C,3,Y,Y,Y,Y,10JAN2007,13APR2007,12,WEEK 12,2007-04-13,13APR2007,94,,Week 12,12,Area Adjusted Psoriasis Area and Severity Index,PASISCOR,13,DERIVED,4.3,4.6,-0.3,-6.5,,72-99 DAYS,85,9,72,99,DAYS,,Y,,,,,4.3,4.6
BBC,BBC-10-043,043,10,63,ARM A,1,ARM A,1,Y,Y,Y,Y,09FEB2007,03MAY2007,16,WEEK 16,2007-05-17,17MAY2007,98,,,,"Area Score, Upper Extremities",ASUEX,1,,2,2,0,0,,,,,,,,,,,,,,2,2
BBC,BBC-10-043,043,10,57,ARM A,1,ARM A,1,Y,Y,Y,Y,09FEB2007,03MAY2007,1,DAY 1,2007-02-09,09FEB2007,1,,Day 1 Baseline,0,"Area Score, Upper Extremities",ASUEX,1,,2,2,,,,,,,,,,Y,Y,,,,,,2
BBC,BBC-10-043,043,10,58,ARM A,1,ARM A,1,Y,Y,Y,Y,09FEB2007,03MAY2007,2,WEEK 2,2007-02-23,23FEB2007,15,,Week 2,2,"Area Score, Upper Extremities",ASUEX,1,,2,2,0,0,,8-22 DAYS,15,0,8,22,DAYS,,Y,,,,,2,2
BBC,BBC-10-043,043,10,59,ARM A,1,ARM A,1,Y,Y,Y,Y,09FEB2007,03MAY2007,4,WEEK 4,2007-03-12,12MAR2007,32,,Week 4,4,"Area Score, Upper Extremities",ASUEX,1,,2,2,0,0,,23-36 DAYS,29,3,23,36,DAYS,,Y,,,,,2,2
BBC,BBC-10-043,043,10,60,ARM A,1,ARM A,1,Y,Y,Y,Y,09FEB2007,03MAY2007,6,WEEK 6,2007-03-23,23MAR2007,43,,Week 6,6,"Area Score, Upper Extremities",ASUEX,1,,2,2,0,0,,37-50 DAYS,43,0,37,50,DAYS,,Y,,,,,2,2
BBC,BBC-10-043,043,10,61,ARM A,1,ARM A,1,Y,Y,Y,Y,09FEB2007,03MAY2007,8,WEEK 8,2007-04-06,06APR2007,57,,Week 8,8,"Area Score, Upper Extremities",ASUEX,1,,2,2,0,0,,51-71 DAYS,57,0,51,71,DAYS,,Y,,,,,2,2
BBC,BBC-10-043,043,10,62,ARM A,1,ARM A,1,Y,Y,Y,Y,09FEB2007,03MAY2007,12,WEEK 12,2007-05-03,03MAY2007,84,,Week 12,12,"Area Score, Upper Extremities",ASUEX,1,,2,2,0,0,,72-99 DAYS,85,1,72,99,DAYS,,Y,,,,,2,2
BBC,BBC-10-043,043,10,35,ARM A,1,ARM A,1,Y,Y,Y,Y,09FEB2007,03MAY2007,16,WEEK 16,2007-05-17,17MAY2007,98,,,,"Area Score, Trunk",ASTRUNK,2,,5,5,0,0,,,,,,,,,,,,,,5,5
BBC,BBC-10-043,043,10,29,ARM A,1,ARM A,1,Y,Y,Y,Y,09FEB2007,03MAY2007,1,DAY 1,2007-02-09,09FEB2007,1,,Day 1 Baseline,0,"Area Score, Trunk",ASTRUNK,2,,5,5,,,,,,,,,,Y,Y,,,,,,5
BBC,BBC-10-043,043,10,30,ARM A,1,ARM A,1,Y,Y,Y,Y,09FEB2007,03MAY2007,2,WEEK 2,2007-02-23,23FEB2007,15,,Week 2,2,"Area Score, Trunk",ASTRUNK,2,,5,5,0,0,,8-22 DAYS,15,0,8,22,DAYS,,Y,,,,,5,5
BBC,BBC-10-043,043,10,31,ARM A,1,ARM A,1,Y,Y,Y,Y,09FEB2007,03MAY2007,4,WEEK 4,2007-03-12,12MAR2007,32,,Week 4,4,"Area Score, Trunk",ASTRUNK,2,,5,5,0,0,,23-36 DAYS,29,3,23,36,DAYS,,Y,,,,,5,5
BBC,BBC-10-043,043,10,32,ARM A,1,ARM A,1,Y,Y,Y,Y,09FEB2007,03MAY2007,6,WEEK 6,2007-03-23,23MAR2007,43,,Week 6,6,"Area Score, Trunk",ASTRUNK,2,,5,5,0,0,,37-50 DAYS,43,0,37,50,DAYS,,Y,,,,,5,5
BBC,BBC-10-043,043,10,33,ARM A,1,ARM A,1,Y,Y,Y,Y,09FEB2007,03MAY2007,8,WEEK 8,2007-04-06,06APR2007,57,,Week 8,8,"Area Score, Trunk",ASTRUNK,2,,5,5,0,0,,51-71 DAYS,57,0,51,71,DAYS,,Y,,,,,5,5
BBC,BBC-10-043,043,10,34,ARM A,1,ARM A,1,Y,Y,Y,Y,09FEB2007,03MAY2007,12,WEEK 12,2007-05-03,03MAY2007,84,,Week 12,12,"Area Score, Trunk",ASTRUNK,2,,5,5,0,0,,72-99 DAYS,85,1,72,99,DAYS,,Y,,,,,5,5
BBC,BBC-10-043,043,10,7,ARM A,1,ARM A,1,Y,Y,Y,Y,09FEB2007,03MAY2007,16,WEEK 16,2007-05-17,17MAY2007,98,,,,"Area Score, Lower Extremities",ASLEX,3,,2,2,0,0,,,,,,,,,,,,,,2,2
BBC,BBC-10-043,043,10,1,ARM A,1,ARM A,1,Y,Y,Y,Y,09FEB2007,03MAY2007,1,DAY 1,2007-02-09,09FEB2007,1,,Day 1 Baseline,0,"Area Score, Lower Extremities",ASLEX,3,,2,2,,,,,,,,,,Y,Y,,,,,,2
BBC,BBC-10-043,043,10,2,ARM A,1,ARM A,1,Y,Y,Y,Y,09FEB2007,03MAY2007,2,WEEK 2,2007-02-23,23FEB2007,15,,Week 2,2,"Area Score, Lower Extremities",ASLEX,3,,2,2,0,0,,8-22 DAYS,15,0,8,22,DAYS,,Y,,,,,2,2
BBC,BBC-10-043,043,10,3,ARM A,1,ARM A,1,Y,Y,Y,Y,09FEB2007,03MAY2007,4,WEEK 4,2007-03-12,12MAR2007,32,,Week 4,4,"Area Score, Lower Extremities",ASLEX,3,,2,2,0,0,,23-36 DAYS,29,3,23,36,DAYS,,Y,,,,,2,2
BBC,BBC-10-043,043,10,4,ARM A,1,ARM A,1,Y,Y,Y,Y,09FEB2007,03MAY2007,6,WEEK 6,2007-03-23,23MAR2007,43,,Week 6,6,"Area Score, Lower Extremities",ASLEX,3,,2,2,0,0,,37-50 DAYS,43,0,37,50,DAYS,,Y,,,,,2,2
BBC,BBC-10-043,043,10,5,ARM A,1,ARM A,1,Y,Y,Y,Y,09FEB2007,03MAY2007,8,WEEK 8,2007-04-06,06APR2007,57,,Week 8,8,"Area Score, Lower Extremities",ASLEX,3,,2,2,0,0,,51-71 DAYS,57,0,51,71,DAYS,,Y,,,,,2,2
BBC,BBC-10-043,043,10,6,ARM A,1,ARM A,1,Y,Y,Y,Y,09FEB2007,03MAY2007,12,WEEK 12,2007-05-03,03MAY2007,84,,Week 12,12,"Area Score, Lower Extremities",ASLEX,3,,2,2,0,0,,72-99 DAYS,85,1,72,99,DAYS,,Y,,,,,2,2
BBC,BBC-10-043,043,10,70,ARM A,1,ARM A,1,Y,Y,Y,Y,09FEB2007,03MAY2007,16,WEEK 16,2007-05-17,17MAY2007,98,,,,"Erythema, Upper Extremities",ERUEX,4,,3,3,0,0,,,,,,,,,,,,,,3,3
BBC,BBC-10-043,043,10,64,ARM A,1,ARM A,1,Y,Y,Y,Y,09FEB2007,03MAY2007,1,DAY 1,2007-02-09,09FEB2007,1,,Day 1 Baseline,0,"Erythema, Upper Extremities",ERUEX,4,,3,3,,,,,,,,,,Y,Y,,,,,,3
BBC,BBC-10-043,043,10,65,ARM A,1,ARM A,1,Y,Y,Y,Y,09FEB2007,03MAY2007,2,WEEK 2,2007-02-23,23FEB2007,15,,Week 2,2,"Erythema, Upper Extremities",ERUEX,4,,2,3,-1,-33.3,,8-22 DAYS,15,0,8,22,DAYS,,Y,,,,,2,3
BBC,BBC-10-043,043,10,66,ARM A,1,ARM A,1,Y,Y,Y,Y,09FEB2007,03MAY2007,4,WEEK 4,2007-03-12,12MAR2007,32,,Week 4,4,"Erythema, Upper Extremities",ERUEX,4,,3,3,0,0,,23-36 DAYS,29,3,23,36,DAYS,,Y,,,,,3,3
BBC,BBC-10-043,043,10,67,ARM A,1,ARM A,1,Y,Y,Y,Y,09FEB2007,03MAY2007,6,WEEK 6,2007-03-23,23MAR2007,43,,Week 6,6,"Erythema, Upper Extremities",ERUEX,4,,2,3,-1,-33.3,,37-50 DAYS,43,0,37,50,DAYS,,Y,,,,,2,3
BBC,BBC-10-043,043,10,68,ARM A,1,ARM A,1,Y,Y,Y,Y,09FEB2007,03MAY2007,8,WEEK 8,2007-04-06,06APR2007,57,,Week 8,8,"Erythema, Upper Extremities",ERUEX,4,,3,3,0,0,,51-71 DAYS,57,0,51,71,DAYS,,Y,,,,,3,3
BBC,BBC-10-043,043,10,69,ARM A,1,ARM A,1,Y,Y,Y,Y,09FEB2007,03MAY2007,12,WEEK 12,2007-05-03,03MAY2007,84,,Week 12,12,"Erythema, Upper Extremities",ERUEX,4,,1,3,-2,-66.7,,72-99 DAYS,85,1,72,99,DAYS,,Y,,,,,1,3
BBC,BBC-10-043,043,10,42,ARM A,1,ARM A,1,Y,Y,Y,Y,09FEB2007,03MAY2007,16,WEEK 16,2007-05-17,17MAY2007,98,,,,"Erythema, Trunk",ERTRUNK,5,,2,2,0,0,,,,,,,,,,,,,,2,2
BBC,BBC-10-043,043,10,36,ARM A,1,ARM A,1,Y,Y,Y,Y,09FEB2007,03MAY2007,1,DAY 1,2007-02-09,09FEB2007,1,,Day 1 Baseline,0,"Erythema, Trunk",ERTRUNK,5,,2,2,,,,,,,,,,Y,Y,,,,,,2
BBC,BBC-10-043,043,10,37,ARM A,1,ARM A,1,Y,Y,Y,Y,09FEB2007,03MAY2007,2,WEEK 2,2007-02-23,23FEB2007,15,,Week 2,2,"Erythema, Trunk",ERTRUNK,5,,2,2,0,0,,8-22 DAYS,15,0,8,22,DAYS,,Y,,,,,2,2
BBC,BBC-10-043,043,10,38,ARM A,1,ARM A,1,Y,Y,Y,Y,09FEB2007,03MAY2007,4,WEEK 4,2007-03-12,12MAR2007,32,,Week 4,4,"Erythema, Trunk",ERTRUNK,5,,3,2,1,50,,23-36 DAYS,29,3,23,36,DAYS,,Y,,,,,3,2
BBC,BBC-10-043,043,10,39,ARM A,1,ARM A,1,Y,Y,Y,Y,09FEB2007,03MAY2007,6,WEEK 6,2007-03-23,23MAR2007,43,,Week 6,6,"Erythema, Trunk",ERTRUNK,5,,2,2,0,0,,37-50 DAYS,43,0,37,50,DAYS,,Y,,,,,2,2
BBC,BBC-10-043,043,10,40,ARM A,1,ARM A,1,Y,Y,Y,Y,09FEB2007,03MAY2007,8,WEEK 8,2007-04-06,06APR2007,57,,Week 8,8,"Erythema, Trunk",ERTRUNK,5,,3,2,1,50,,51-71 DAYS,57,0,51,71,DAYS,,Y,,,,,3,2
BBC,BBC-10-043,043,10,41,ARM A,1,ARM A,1,Y,Y,Y,Y,09FEB2007,03MAY2007,12,WEEK 12,2007-05-03,03MAY2007,84,,Week 12,12,"Erythema, Trunk",ERTRUNK,5,,1,2,-1,-50,,72-99 DAYS,85,1,72,99,DAYS,,Y,,,,,1,2
BBC,BBC-10-043,043,10,14,ARM A,1,ARM A,1,Y,Y,Y,Y,09FEB2007,03MAY2007,16,WEEK 16,2007-05-17,17MAY2007,98,,,,"Erythema, Lower Extremities",ERLEX,6,,3,3,0,0,,,,,,,,,,,,,,3,3
BBC,BBC-10-043,043,10,8,ARM A,1,ARM A,1,Y,Y,Y,Y,09FEB2007,03MAY2007,1,DAY 1,2007-02-09,09FEB2007,1,,Day 1 Baseline,0,"Erythema, Lower Extremities",ERLEX,6,,3,3,,,,,,,,,,Y,Y,,,,,,3
BBC,BBC-10-043,043,10,9,ARM A,1,ARM A,1,Y,Y,Y,Y,09FEB2007,03MAY2007,2,WEEK 2,2007-02-23,23FEB2007,15,,Week 2,2,"Erythema, Lower Extremities",ERLEX,6,,2,3,-1,-33.3,,8-22 DAYS,15,0,8,22,DAYS,,Y,,,,,2,3
BBC,BBC-10-043,043,10,10,ARM A,1,ARM A,1,Y,Y,Y,Y,09FEB2007,03MAY2007,4,WEEK 4,2007-03-12,12MAR2007,32,,Week 4,4,"Erythema, Lower Extremities",ERLEX,6,,3,3,0,0,,23-36 DAYS,29,3,23,36,DAYS,,Y,,,,,3,3
BBC,BBC-10-043,043,10,11,ARM A,1,ARM A,1,Y,Y,Y,Y,09FEB2007,03MAY2007,6,WEEK 6,2007-03-23,23MAR2007,43,,Week 6,6,"Erythema, Lower Extremities",ERLEX,6,,2,3,-1,-33.3,,37-50 DAYS,43,0,37,50,DAYS,,Y,,,,,2,3
BBC,BBC-10-043,043,10,12,ARM A,1,ARM A,1,Y,Y,Y,Y,09FEB2007,03MAY2007,8,WEEK 8,2007-04-06,06APR2007,57,,Week 8,8,"Erythema, Lower Extremities",ERLEX,6,,3,3,0,0,,51-71 DAYS,57,0,51,71,DAYS,,Y,,,,,3,3
BBC,BBC-10-043,043,10,13,ARM A,1,ARM A,1,Y,Y,Y,Y,09FEB2007,03MAY2007,12,WEEK 12,2007-05-03,03MAY2007,84,,Week 12,12,"Erythema, Lower Extremities",ERLEX,6,,1,3,-2,-66.7,,72-99 DAYS,85,1,72,99,DAYS,,Y,,,,,1,3
BBC,BBC-10-043,043,10,84,ARM A,1,ARM A,1,Y,Y,Y,Y,09FEB2007,03MAY2007,16,WEEK 16,2007-05-17,17MAY2007,98,,,,"Thickness, Upper Extremities",THKUEX,7,,3,2,1,50,,,,,,,,,,,,,,3,2
BBC,BBC-10-043,043,10,78,ARM A,1,ARM A,1,Y,Y,Y,Y,09FEB2007,03MAY2007,1,DAY 1,2007-02-09,09FEB2007,1,,Day 1 Baseline,0,"Thickness, Upper Extremities",THKUEX,7,,2,2,,,,,,,,,,Y,Y,,,,,,2
BBC,BBC-10-043,043,10,79,ARM A,1,ARM A,1,Y,Y,Y,Y,09FEB2007,03MAY2007,2,WEEK 2,2007-02-23,23FEB2007,15,,Week 2,2,"Thickness, Upper Extremities",THKUEX,7,,2,2,0,0,,8-22 DAYS,15,0,8,22,DAYS,,Y,,,,,2,2
BBC,BBC-10-043,043,10,80,ARM A,1,ARM A,1,Y,Y,Y,Y,09FEB2007,03MAY2007,4,WEEK 4,2007-03-12,12MAR2007,32,,Week 4,4,"Thickness, Upper Extremities",THKUEX,7,,3,2,1,50,,23-36 DAYS,29,3,23,36,DAYS,,Y,,,,,3,2
BBC,BBC-10-043,043,10,81,ARM A,1,ARM A,1,Y,Y,Y,Y,09FEB2007,03MAY2007,6,WEEK 6,2007-03-23,23MAR2007,43,,Week 6,6,"Thickness, Upper Extremities",THKUEX,7,,2,2,0,0,,37-50 DAYS,43,0,37,50,DAYS,,Y,,,,,2,2
BBC,BBC-10-043,043,10,82,ARM A,1,ARM A,1,Y,Y,Y,Y,09FEB2007,03MAY2007,8,WEEK 8,2007-04-06,06APR2007,57,,Week 8,8,"Thickness, Upper Extremities",THKUEX,7,,3,2,1,50,,51-71 DAYS,57,0,51,71,DAYS,,Y,,,,,3,2
BBC,BBC-10-043,043,10,83,ARM A,1,ARM A,1,Y,Y,Y,Y,09FEB2007,03MAY2007,12,WEEK 12,2007-05-03,03MAY2007,84,,Week 12,12,"Thickness, Upper Extremities",THKUEX,7,,2,2,0,0,,72-99 DAYS,85,1,72,99,DAYS,,Y,,,,,2,2
BBC,BBC-10-043,043,10,56,ARM A,1,ARM A,1,Y,Y,Y,Y,09FEB2007,03MAY2007,16,WEEK 16,2007-05-17,17MAY2007,98,,,,"Thickness, Trunk",THKTRUNK,8,,2,1,1,100,,,,,,,,,,,,,,2,1
BBC,BBC-10-043,043,10,50,ARM A,1,ARM A,1,Y,Y,Y,Y,09FEB2007,03MAY2007,1,DAY 1,2007-02-09,09FEB2007,1,,Day 1 Baseline,0,"Thickness, Trunk",THKTRUNK,8,,1,1,,,,,,,,,,Y,Y,,,,,,1
BBC,BBC-10-043,043,10,51,ARM A,1,ARM A,1,Y,Y,Y,Y,09FEB2007,03MAY2007,2,WEEK 2,2007-02-23,23FEB2007,15,,Week 2,2,"Thickness, Trunk",THKTRUNK,8,,2,1,1,100,,8-22 DAYS,15,0,8,22,DAYS,,Y,,,,,2,1
BBC,BBC-10-043,043,10,52,ARM A,1,ARM A,1,Y,Y,Y,Y,09FEB2007,03MAY2007,4,WEEK 4,2007-03-12,12MAR2007,32,,Week 4,4,"Thickness, Trunk",THKTRUNK,8,,2,1,1,100,,23-36 DAYS,29,3,23,36,DAYS,,Y,,,,,2,1
BBC,BBC-10-043,043,10,53,ARM A,1,ARM A,1,Y,Y,Y,Y,09FEB2007,03MAY2007,6,WEEK 6,2007-03-23,23MAR2007,43,,Week 6,6,"Thickness, Trunk",THKTRUNK,8,,2,1,1,100,,37-50 DAYS,43,0,37,50,DAYS,,Y,,,,,2,1
BBC,BBC-10-043,043,10,54,ARM A,1,ARM A,1,Y,Y,Y,Y,09FEB2007,03MAY2007,8,WEEK 8,2007-04-06,06APR2007,57,,Week 8,8,"Thickness, Trunk",THKTRUNK,8,,3,1,2,200,,51-71 DAYS,57,0,51,71,DAYS,,Y,,,,,3,1
BBC,BBC-10-043,043,10,55,ARM A,1,ARM A,1,Y,Y,Y,Y,09FEB2007,03MAY2007,12,WEEK 12,2007-05-03,03MAY2007,84,,Week 12,12,"Thickness, Trunk",THKTRUNK,8,,2,1,1,100,,72-99 DAYS,85,1,72,99,DAYS,,Y,,,,,2,1
BBC,BBC-10-043,043,10,28,ARM A,1,ARM A,1,Y,Y,Y,Y,09FEB2007,03MAY2007,16,WEEK 16,2007-05-17,17MAY2007,98,,,,"Thickness, Lower Extremities",THKLEX,9,,3,2,1,50,,,,,,,,,,,,,,3,2
BBC,BBC-10-043,043,10,22,ARM A,1,ARM A,1,Y,Y,Y,Y,09FEB2007,03MAY2007,1,DAY 1,2007-02-09,09FEB2007,1,,Day 1 Baseline,0,"Thickness, Lower Extremities",THKLEX,9,,2,2,,,,,,,,,,Y,Y,,,,,,2
BBC,BBC-10-043,043,10,23,ARM A,1,ARM A,1,Y,Y,Y,Y,09FEB2007,03MAY2007,2,WEEK 2,2007-02-23,23FEB2007,15,,Week 2,2,"Thickness, Lower Extremities",THKLEX,9,,2,2,0,0,,8-22 DAYS,15,0,8,22,DAYS,,Y,,,,,2,2
BBC,BBC-10-043,043,10,24,ARM A,1,ARM A,1,Y,Y,Y,Y,09FEB2007,03MAY2007,4,WEEK 4,2007-03-12,12MAR2007,32,,Week 4,4,"Thickness, Lower Extremities",THKLEX,9,,2,2,0,0,,23-36 DAYS,29,3,23,36,DAYS,,Y,,,,,2,2
BBC,BBC-10-043,043,10,25,ARM A,1,ARM A,1,Y,Y,Y,Y,09FEB2007,03MAY2007,6,WEEK 6,2007-03-23,23MAR2007,43,,Week 6,6,"Thickness, Lower Extremities",THKLEX,9,,2,2,0,0,,37-50 DAYS,43,0,37,50,DAYS,,Y,,,,,2,2
BBC,BBC-10-043,043,10,26,ARM A,1,ARM A,1,Y,Y,Y,Y,09FEB2007,03MAY2007,8,WEEK 8,2007-04-06,06APR2007,57,,Week 8,8,"Thickness, Lower Extremities",THKLEX,9,,3,2,1,50,,51-71 DAYS,57,0,51,71,DAYS,,Y,,,,,3,2
BBC,BBC-10-043,043,10,27,ARM A,1,ARM A,1,Y,Y,Y,Y,09FEB2007,03MAY2007,12,WEEK 12,2007-05-03,03MAY2007,84,,Week 12,12,"Thickness, Lower Extremities",THKLEX,9,,2,2,0,0,,72-99 DAYS,85,1,72,99,DAYS,,Y,,,,,2,2
BBC,BBC-10-043,043,10,77,ARM A,1,ARM A,1,Y,Y,Y,Y,09FEB2007,03MAY2007,16,WEEK 16,2007-05-17,17MAY2007,98,,,,"Scale, Upper Extremities",SCUEX,10,,3,4,-1,-25,,,,,,,,,,,,,,3,4
BBC,BBC-10-043,043,10,71,ARM A,1,ARM A,1,Y,Y,Y,Y,09FEB2007,03MAY2007,1,DAY 1,2007-02-09,09FEB2007,1,,Day 1 Baseline,0,"Scale, Upper Extremities",SCUEX,10,,4,4,,,,,,,,,,Y,Y,,,,,,4
BBC,BBC-10-043,043,10,72,ARM A,1,ARM A,1,Y,Y,Y,Y,09FEB2007,03MAY2007,2,WEEK 2,2007-02-23,23FEB2007,15,,Week 2,2,"Scale, Upper Extremities",SCUEX,10,,2,4,-2,-50,,8-22 DAYS,15,0,8,22,DAYS,,Y,,,,,2,4
BBC,BBC-10-043,043,10,73,ARM A,1,ARM A,1,Y,Y,Y,Y,09FEB2007,03MAY2007,4,WEEK 4,2007-03-12,12MAR2007,32,,Week 4,4,"Scale, Upper Extremities",SCUEX,10,,3,4,-1,-25,,23-36 DAYS,29,3,23,36,DAYS,,Y,,,,,3,4
BBC,BBC-10-043,043,10,74,ARM A,1,ARM A,1,Y,Y,Y,Y,09FEB2007,03MAY2007,6,WEEK 6,2007-03-23,23MAR2007,43,,Week 6,6,"Scale, Upper Extremities",SCUEX,10,,3,4,-1,-25,,37-50 DAYS,43,0,37,50,DAYS,,Y,,,,,3,4
BBC,BBC-10-043,043,10,75,ARM A,1,ARM A,1,Y,Y,Y,Y,09FEB2007,03MAY2007,8,WEEK 8,2007-04-06,06APR2007,57,,Week 8,8,"Scale, Upper Extremities",SCUEX,10,,3,4,-1,-25,,51-71 DAYS,57,0,51,71,DAYS,,Y,,,,,3,4
BBC,BBC-10-043,043,10,76,ARM A,1,ARM A,1,Y,Y,Y,Y,09FEB2007,03MAY2007,12,WEEK 12,2007-05-03,03MAY2007,84,,Week 12,12,"Scale, Upper Extremities",SCUEX,10,,2,4,-2,-50,,72-99 DAYS,85,1,72,99,DAYS,,Y,,,,,2,4
BBC,BBC-10-043,043,10,49,ARM A,1,ARM A,1,Y,Y,Y,Y,09FEB2007,03MAY2007,16,WEEK 16,2007-05-17,17MAY2007,98,,,,"Scale, Trunk",SCTRUNK,11,,3,2,1,50,,,,,,,,,,,,,,3,2
BBC,BBC-10-043,043,10,43,ARM A,1,ARM A,1,Y,Y,Y,Y,09FEB2007,03MAY2007,1,DAY 1,2007-02-09,09FEB2007,1,,Day 1 Baseline,0,"Scale, Trunk",SCTRUNK,11,,2,2,,,,,,,,,,Y,Y,,,,,,2
BBC,BBC-10-043,043,10,44,ARM A,1,ARM A,1,Y,Y,Y,Y,09FEB2007,03MAY2007,2,WEEK 2,2007-02-23,23FEB2007,15,,Week 2,2,"Scale, Trunk",SCTRUNK,11,,1,2,-1,-50,,8-22 DAYS,15,0,8,22,DAYS,,Y,,,,,1,2
BBC,BBC-10-043,043,10,45,ARM A,1,ARM A,1,Y,Y,Y,Y,09FEB2007,03MAY2007,4,WEEK 4,2007-03-12,12MAR2007,32,,Week 4,4,"Scale, Trunk",SCTRUNK,11,,2,2,0,0,,23-36 DAYS,29,3,23,36,DAYS,,Y,,,,,2,2
BBC,BBC-10-043,043,10,46,ARM A,1,ARM A,1,Y,Y,Y,Y,09FEB2007,03MAY2007,6,WEEK 6,2007-03-23,23MAR2007,43,,Week 6,6,"Scale, Trunk",SCTRUNK,11,,3,2,1,50,,37-50 DAYS,43,0,37,50,DAYS,,Y,,,,,3,2
BBC,BBC-10-043,043,10,47,ARM A,1,ARM A,1,Y,Y,Y,Y,09FEB2007,03MAY2007,8,WEEK 8,2007-04-06,06APR2007,57,,Week 8,8,"Scale, Trunk",SCTRUNK,11,,3,2,1,50,,51-71 DAYS,57,0,51,71,DAYS,,Y,,,,,3,2
BBC,BBC-10-043,043,10,48,ARM A,1,ARM A,1,Y,Y,Y,Y,09FEB2007,03MAY2007,12,WEEK 12,2007-05-03,03MAY2007,84,,Week 12,12,"Scale, Trunk",SCTRUNK,11,,2,2,0,0,,72-99 DAYS,85,1,72,99,DAYS,,Y,,,,,2,2
BBC,BBC-10-043,043,10,21,ARM A,1,ARM A,1,Y,Y,Y,Y,09FEB2007,03MAY2007,16,WEEK 16,2007-05-17,17MAY2007,98,,,,"Scale, Lower Extremities",SCLEX,12,,3,3,0,0,,,,,,,,,,,,,,3,3
BBC,BBC-10-043,043,10,15,ARM A,1,ARM A,1,Y,Y,Y,Y,09FEB2007,03MAY2007,1,DAY 1,2007-02-09,09FEB2007,1,,Day 1 Baseline,0,"Scale, Lower Extremities",SCLEX,12,,3,3,,,,,,,,,,Y,Y,,,,,,3
BBC,BBC-10-043,043,10,16,ARM A,1,ARM A,1,Y,Y,Y,Y,09FEB2007,03MAY2007,2,WEEK 2,2007-02-23,23FEB2007,15,,Week 2,2,"Scale, Lower Extremities",SCLEX,12,,2,3,-1,-33.3,,8-22 DAYS,15,0,8,22,DAYS,,Y,,,,,2,3
BBC,BBC-10-043,043,10,17,ARM A,1,ARM A,1,Y,Y,Y,Y,09FEB2007,03MAY2007,4,WEEK 4,2007-03-12,12MAR2007,32,,Week 4,4,"Scale, Lower Extremities",SCLEX,12,,2,3,-1,-33.3,,23-36 DAYS,29,3,23,36,DAYS,,Y,,,,,2,3
BBC,BBC-10-043,043,10,18,ARM A,1,ARM A,1,Y,Y,Y,Y,09FEB2007,03MAY2007,6,WEEK 6,2007-03-23,23MAR2007,43,,Week 6,6,"Scale, Lower Extremities",SCLEX,12,,3,3,0,0,,37-50 DAYS,43,0,37,50,DAYS,,Y,,,,,3,3
BBC,BBC-10-043,043,10,19,ARM A,1,ARM A,1,Y,Y,Y,Y,09FEB2007,03MAY2007,8,WEEK 8,2007-04-06,06APR2007,57,,Week 8,8,"Scale, Lower Extremities",SCLEX,12,,3,3,0,0,,51-71 DAYS,57,0,51,71,DAYS,,Y,,,,,3,3
BBC,BBC-10-043,043,10,20,ARM A,1,ARM A,1,Y,Y,Y,Y,09FEB2007,03MAY2007,12,WEEK 12,2007-05-03,03MAY2007,84,,Week 12,12,"Scale, Lower Extremities",SCLEX,12,,3,3,0,0,,72-99 DAYS,85,1,72,99,DAYS,,Y,,,,,3,3
BBC,BBC-10-043,043,10,84,ARM A,1,ARM A,1,Y,Y,Y,Y,09FEB2007,03MAY2007,16,WEEK 16,2007-05-17,17MAY2007,98,,,,Area Adjusted Psoriasis Area and Severity Index,PASISCOR,13,DERIVED,24,19.6,4.4,22.4,,,,,,,,,,,,,,24,19.6
BBC,BBC-10-043,043,10,78,ARM A,1,ARM A,1,Y,Y,Y,Y,09FEB2007,03MAY2007,1,DAY 1,2007-02-09,09FEB2007,1,,Day 1 Baseline,0,Area Adjusted Psoriasis Area and Severity Index,PASISCOR,13,DERIVED,19.6,19.6,,,,,,,,,,Y,Y,,,,,,19.6
BBC,BBC-10-043,043,10,79,ARM A,1,ARM A,1,Y,Y,Y,Y,09FEB2007,03MAY2007,2,WEEK 2,2007-02-23,23FEB2007,15,,Week 2,2,Area Adjusted Psoriasis Area and Severity Index,PASISCOR,13,DERIVED,16.6,19.6,-3,-15.3,,8-22 DAYS,15,0,8,22,DAYS,,Y,,,,,16.6,19.6
BBC,BBC-10-043,043,10,80,ARM A,1,ARM A,1,Y,Y,Y,Y,09FEB2007,03MAY2007,4,WEEK 4,2007-03-12,12MAR2007,32,,Week 4,4,Area Adjusted Psoriasis Area and Severity Index,PASISCOR,13,DERIVED,22.2,19.6,2.6,13.3,,23-36 DAYS,29,3,23,36,DAYS,,Y,,,,,22.2,19.6
BBC,BBC-10-043,043,10,81,ARM A,1,ARM A,1,Y,Y,Y,Y,09FEB2007,03MAY2007,6,WEEK 6,2007-03-23,23MAR2007,43,,Week 6,6,Area Adjusted Psoriasis Area and Severity Index,PASISCOR,13,DERIVED,21.4,19.6,1.8,9.2,,37-50 DAYS,43,0,37,50,DAYS,,Y,,,,,21.4,19.6
BBC,BBC-10-043,043,10,82,ARM A,1,ARM A,1,Y,Y,Y,Y,09FEB2007,03MAY2007,8,WEEK 8,2007-04-06,06APR2007,57,,Week 8,8,Area Adjusted Psoriasis Area and Severity Index,PASISCOR,13,DERIVED,27.5,19.6,7.9,40.3,,51-71 DAYS,57,0,51,71,DAYS,,Y,,,,,27.5,19.6
BBC,BBC-10-043,043,10,83,ARM A,1,ARM A,1,Y,Y,Y,Y,09FEB2007,03MAY2007,12,WEEK 12,2007-05-03,03MAY2007,84,,Week 12,12,Area Adjusted Psoriasis Area and Severity Index,PASISCOR,13,DERIVED,16.1,19.6,-3.5,-17.9,,72-99 DAYS,85,1,72,99,DAYS,,Y,,,,,16.1,19.6
BBC,BBC-10-145,145,10,54,ARM A,1,ARM A,1,Y,Y,Y,N,08DEC2006,30MAR2007,12,WEEK 12,2007-03-30,30MAR2007,113,,,,"Area Score, Upper Extremities",ASUEX,1,,1,1,0,0,,,,,,,,,,,,,,1,1
BBC,BBC-10-145,145,10,49,ARM A,1,ARM A,1,Y,Y,Y,N,08DEC2006,30MAR2007,1,DAY 1,2006-12-08,08DEC2006,1,,Day 1 Baseline,0,"Area Score, Upper Extremities",ASUEX,1,,1,1,,,,,,,,,,Y,Y,,,,,,1
BBC,BBC-10-145,145,10,50,ARM A,1,ARM A,1,Y,Y,Y,N,08DEC2006,30MAR2007,2,WEEK 2,2006-12-20,20DEC2006,13,,Week 2,2,"Area Score, Upper Extremities",ASUEX,1,,1,1,0,0,,8-22 DAYS,15,2,8,22,DAYS,,Y,,,,,1,1
BBC,BBC-10-145,145,10,51,ARM A,1,ARM A,1,Y,Y,Y,N,08DEC2006,30MAR2007,4,WEEK 4,2007-01-05,05JAN2007,29,,Week 4,4,"Area Score, Upper Extremities",ASUEX,1,,1,1,0,0,,23-36 DAYS,29,0,23,36,DAYS,,Y,,,,,1,1
BBC,BBC-10-145,145,10,52,ARM A,1,ARM A,1,Y,Y,Y,N,08DEC2006,30MAR2007,6,WEEK 6,2007-01-23,23JAN2007,47,,Week 6,6,"Area Score, Upper Extremities",ASUEX,1,,1,1,0,0,,37-50 DAYS,43,4,37,50,DAYS,,Y,,,,,1,1
BBC,BBC-10-145,145,10,53,ARM A,1,ARM A,1,Y,Y,Y,N,08DEC2006,30MAR2007,8,WEEK 8,2007-02-16,16FEB2007,71,,Week 8,8,"Area Score, Upper Extremities",ASUEX,1,,1,1,0,0,,51-71 DAYS,57,14,51,71,DAYS,,Y,,,,,1,1
BBC,BBC-10-145,145,10,49,ARM A,1,ARM A,1,Y,Y,Y,N,08DEC2006,30MAR2007,12,WEEK 12,,,,,Week 12,12,"Area Score, Upper Extremities",ASUEX,1,,1,1,,,LOCF,,,,,,,,Y,,,,,1,1
BBC,BBC-10-145,145,10,30,ARM A,1,ARM A,1,Y,Y,Y,N,08DEC2006,30MAR2007,12,WEEK 12,2007-03-30,30MAR2007,113,,,,"Area Score, Trunk",ASTRUNK,2,,0,0,0,,,,,,,,,,,,,,,0,0
BBC,BBC-10-145,145,10,25,ARM A,1,ARM A,1,Y,Y,Y,N,08DEC2006,30MAR2007,1,DAY 1,2006-12-08,08DEC2006,1,,Day 1 Baseline,0,"Area Score, Trunk",ASTRUNK,2,,0,0,,,,,,,,,,Y,Y,,,,,,0
BBC,BBC-10-145,145,10,26,ARM A,1,ARM A,1,Y,Y,Y,N,08DEC2006,30MAR2007,2,WEEK 2,2006-12-20,20DEC2006,13,,Week 2,2,"Area Score, Trunk",ASTRUNK,2,,0,0,0,,,8-22 DAYS,15,2,8,22,DAYS,,Y,,,,,0,0
BBC,BBC-10-145,145,10,27,ARM A,1,ARM A,1,Y,Y,Y,N,08DEC2006,30MAR2007,4,WEEK 4,2007-01-05,05JAN2007,29,,Week 4,4,"Area Score, Trunk",ASTRUNK,2,,0,0,0,,,23-36 DAYS,29,0,23,36,DAYS,,Y,,,,,0,0
BBC,BBC-10-145,145,10,28,ARM A,1,ARM A,1,Y,Y,Y,N,08DEC2006,30MAR2007,6,WEEK 6,2007-01-23,23JAN2007,47,,Week 6,6,"Area Score, Trunk",ASTRUNK,2,,0,0,0,,,37-50 DAYS,43,4,37,50,DAYS,,Y,,,,,0,0
BBC,BBC-10-145,145,10,29,ARM A,1,ARM A,1,Y,Y,Y,N,08DEC2006,30MAR2007,8,WEEK 8,2007-02-16,16FEB2007,71,,Week 8,8,"Area Score, Trunk",ASTRUNK,2,,0,0,0,,,51-71 DAYS,57,14,51,71,DAYS,,Y,,,,,0,0
BBC,BBC-10-145,145,10,25,ARM A,1,ARM A,1,Y,Y,Y,N,08DEC2006,30MAR2007,12,WEEK 12,,,,,Week 12,12,"Area Score, Trunk",ASTRUNK,2,,0,0,,,LOCF,,,,,,,,Y,,,,,0,0
BBC,BBC-10-145,145,10,6,ARM A,1,ARM A,1,Y,Y,Y,N,08DEC2006,30MAR2007,12,WEEK 12,2007-03-30,30MAR2007,113,,,,"Area Score, Lower Extremities",ASLEX,3,,1,1,0,0,,,,,,,,,,,,,,1,1
BBC,BBC-10-145,145,10,1,ARM A,1,ARM A,1,Y,Y,Y,N,08DEC2006,30MAR2007,1,DAY 1,2006-12-08,08DEC2006,1,,Day 1 Baseline,0,"Area Score, Lower Extremities",ASLEX,3,,1,1,,,,,,,,,,Y,Y,,,,,,1
BBC,BBC-10-145,145,10,2,ARM A,1,ARM A,1,Y,Y,Y,N,08DEC2006,30MAR2007,2,WEEK 2,2006-12-20,20DEC2006,13,,Week 2,2,"Area Score, Lower Extremities",ASLEX,3,,1,1,0,0,,8-22 DAYS,15,2,8,22,DAYS,,Y,,,,,1,1
BBC,BBC-10-145,145,10,3,ARM A,1,ARM A,1,Y,Y,Y,N,08DEC2006,30MAR2007,4,WEEK 4,2007-01-05,05JAN2007,29,,Week 4,4,"Area Score, Lower Extremities",ASLEX,3,,1,1,0,0,,23-36 DAYS,29,0,23,36,DAYS,,Y,,,,,1,1
BBC,BBC-10-145,145,10,4,ARM A,1,ARM A,1,Y,Y,Y,N,08DEC2006,30MAR2007,6,WEEK 6,2007-01-23,23JAN2007,47,,Week 6,6,"Area Score, Lower Extremities",ASLEX,3,,1,1,0,0,,37-50 DAYS,43,4,37,50,DAYS,,Y,,,,,1,1
BBC,BBC-10-145,145,10,5,ARM A,1,ARM A,1,Y,Y,Y,N,08DEC2006,30MAR2007,8,WEEK 8,2007-02-16,16FEB2007,71,,Week 8,8,"Area Score, Lower Extremities",ASLEX,3,,1,1,0,0,,51-71 DAYS,57,14,51,71,DAYS,,Y,,,,,1,1
BBC,BBC-10-145,145,10,1,ARM A,1,ARM A,1,Y,Y,Y,N,08DEC2006,30MAR2007,12,WEEK 12,,,,,Week 12,12,"Area Score, Lower Extremities",ASLEX,3,,1,1,,,LOCF,,,,,,,,Y,,,,,1,1
BBC,BBC-10-145,145,10,60,ARM A,1,ARM A,1,Y,Y,Y,N,08DEC2006,30MAR2007,12,WEEK 12,2007-03-30,30MAR2007,113,,,,"Erythema, Upper Extremities",ERUEX,4,,1,2,-1,-50,,,,,,,,,,,,,,1,2
BBC,BBC-10-145,145,10,55,ARM A,1,ARM A,1,Y,Y,Y,N,08DEC2006,30MAR2007,1,DAY 1,2006-12-08,08DEC2006,1,,Day 1 Baseline,0,"Erythema, Upper Extremities",ERUEX,4,,2,2,,,,,,,,,,Y,Y,,,,,,2
BBC,BBC-10-145,145,10,56,ARM A,1,ARM A,1,Y,Y,Y,N,08DEC2006,30MAR2007,2,WEEK 2,2006-12-20,20DEC2006,13,,Week 2,2,"Erythema, Upper Extremities",ERUEX,4,,2,2,0,0,,8-22 DAYS,15,2,8,22,DAYS,,Y,,,,,2,2
BBC,BBC-10-145,145,10,57,ARM A,1,ARM A,1,Y,Y,Y,N,08DEC2006,30MAR2007,4,WEEK 4,2007-01-05,05JAN2007,29,,Week 4,4,"Erythema, Upper Extremities",ERUEX,4,,1,2,-1,-50,,23-36 DAYS,29,0,23,36,DAYS,,Y,,,,,1,2
BBC,BBC-10-145,145,10,58,ARM A,1,ARM A,1,Y,Y,Y,N,08DEC2006,30MAR2007,6,WEEK 6,2007-01-23,23JAN2007,47,,Week 6,6,"Erythema, Upper Extremities",ERUEX,4,,1,2,-1,-50,,37-50 DAYS,43,4,37,50,DAYS,,Y,,,,,1,2
BBC,BBC-10-145,145,10,59,ARM A,1,ARM A,1,Y,Y,Y,N,08DEC2006,30MAR2007,8,WEEK 8,2007-02-16,16FEB2007,71,,Week 8,8,"Erythema, Upper Extremities",ERUEX,4,,0,2,-2,-100,,51-71 DAYS,57,14,51,71,DAYS,,Y,,,,,0,2
BBC,BBC-10-145,145,10,55,ARM A,1,ARM A,1,Y,Y,Y,N,08DEC2006,30MAR2007,12,WEEK 12,,,,,Week 12,12,"Erythema, Upper Extremities",ERUEX,4,,0,2,,,LOCF,,,,,,,,Y,,,,,0,2
BBC,BBC-10-145,145,10,36,ARM A,1,ARM A,1,Y,Y,Y,N,08DEC2006,30MAR2007,12,WEEK 12,2007-03-30,30MAR2007,113,,,,"Erythema, Trunk",ERTRUNK,5,,0,0,0,,,,,,,,,,,,,,,0,0
BBC,BBC-10-145,145,10,31,ARM A,1,ARM A,1,Y,Y,Y,N,08DEC2006,30MAR2007,1,DAY 1,2006-12-08,08DEC2006,1,,Day 1 Baseline,0,"Erythema, Trunk",ERTRUNK,5,,0,0,,,,,,,,,,Y,Y,,,,,,0
BBC,BBC-10-145,145,10,32,ARM A,1,ARM A,1,Y,Y,Y,N,08DEC2006,30MAR2007,2,WEEK 2,2006-12-20,20DEC2006,13,,Week 2,2,"Erythema, Trunk",ERTRUNK,5,,0,0,0,,,8-22 DAYS,15,2,8,22,DAYS,,Y,,,,,0,0
BBC,BBC-10-145,145,10,33,ARM A,1,ARM A,1,Y,Y,Y,N,08DEC2006,30MAR2007,4,WEEK 4,2007-01-05,05JAN2007,29,,Week 4,4,"Erythema, Trunk",ERTRUNK,5,,0,0,0,,,23-36 DAYS,29,0,23,36,DAYS,,Y,,,,,0,0
BBC,BBC-10-145,145,10,34,ARM A,1,ARM A,1,Y,Y,Y,N,08DEC2006,30MAR2007,6,WEEK 6,2007-01-23,23JAN2007,47,,Week 6,6,"Erythema, Trunk",ERTRUNK,5,,0,0,0,,,37-50 DAYS,43,4,37,50,DAYS,,Y,,,,,0,0
BBC,BBC-10-145,145,10,35,ARM A,1,ARM A,1,Y,Y,Y,N,08DEC2006,30MAR2007,8,WEEK 8,2007-02-16,16FEB2007,71,,Week 8,8,"Erythema, Trunk",ERTRUNK,5,,0,0,0,,,51-71 DAYS,57,14,51,71,DAYS,,Y,,,,,0,0
BBC,BBC-10-145,145,10,31,ARM A,1,ARM A,1,Y,Y,Y,N,08DEC2006,30MAR2007,12,WEEK 12,,,,,Week 12,12,"Erythema, Trunk",ERTRUNK,5,,0,0,,,LOCF,,,,,,,,Y,,,,,0,0
BBC,BBC-10-145,145,10,12,ARM A,1,ARM A,1,Y,Y,Y,N,08DEC2006,30MAR2007,12,WEEK 12,2007-03-30,30MAR2007,113,,,,"Erythema, Lower Extremities",ERLEX,6,,0,2,-2,-100,,,,,,,,,,,,,,0,2
BBC,BBC-10-145,145,10,7,ARM A,1,ARM A,1,Y,Y,Y,N,08DEC2006,30MAR2007,1,DAY 1,2006-12-08,08DEC2006,1,,Day 1 Baseline,0,"Erythema, Lower Extremities",ERLEX,6,,2,2,,,,,,,,,,Y,Y,,,,,,2
BBC,BBC-10-145,145,10,8,ARM A,1,ARM A,1,Y,Y,Y,N,08DEC2006,30MAR2007,2,WEEK 2,2006-12-20,20DEC2006,13,,Week 2,2,"Erythema, Lower Extremities",ERLEX,6,,2,2,0,0,,8-22 DAYS,15,2,8,22,DAYS,,Y,,,,,2,2
BBC,BBC-10-145,145,10,9,ARM A,1,ARM A,1,Y,Y,Y,N,08DEC2006,30MAR2007,4,WEEK 4,2007-01-05,05JAN2007,29,,Week 4,4,"Erythema, Lower Extremities",ERLEX,6,,1,2,-1,-50,,23-36 DAYS,29,0,23,36,DAYS,,Y,,,,,1,2
BBC,BBC-10-145,145,10,10,ARM A,1,ARM A,1,Y,Y,Y,N,08DEC2006,30MAR2007,6,WEEK 6,2007-01-23,23JAN2007,47,,Week 6,6,"Erythema, Lower Extremities",ERLEX,6,,0,2,-2,-100,,37-50 DAYS,43,4,37,50,DAYS,,Y,,,,,0,2
BBC,BBC-10-145,145,10,11,ARM A,1,ARM A,1,Y,Y,Y,N,08DEC2006,30MAR2007,8,WEEK 8,2007-02-16,16FEB2007,71,,Week 8,8,"Erythema, Lower Extremities",ERLEX,6,,0,2,-2,-100,,51-71 DAYS,57,14,51,71,DAYS,,Y,,,,,0,2
BBC,BBC-10-145,145,10,7,ARM A,1,ARM A,1,Y,Y,Y,N,08DEC2006,30MAR2007,12,WEEK 12,,,,,Week 12,12,"Erythema, Lower Extremities",ERLEX,6,,0,2,,,LOCF,,,,,,,,Y,,,,,0,2
BBC,BBC-10-145,145,10,72,ARM A,1,ARM A,1,Y,Y,Y,N,08DEC2006,30MAR2007,12,WEEK 12,2007-03-30,30MAR2007,113,,,,"Thickness, Upper Extremities",THKUEX,7,,0,2,-2,-100,,,,,,,,,,,,,,0,2
BBC,BBC-10-145,145,10,67,ARM A,1,ARM A,1,Y,Y,Y,N,08DEC2006,30MAR2007,1,DAY 1,2006-12-08,08DEC2006,1,,Day 1 Baseline,0,"Thickness, Upper Extremities",THKUEX,7,,2,2,,,,,,,,,,Y,Y,,,,,,2
BBC,BBC-10-145,145,10,68,ARM A,1,ARM A,1,Y,Y,Y,N,08DEC2006,30MAR2007,2,WEEK 2,2006-12-20,20DEC2006,13,,Week 2,2,"Thickness, Upper Extremities",THKUEX,7,,2,2,0,0,,8-22 DAYS,15,2,8,22,DAYS,,Y,,,,,2,2
BBC,BBC-10-145,145,10,69,ARM A,1,ARM A,1,Y,Y,Y,N,08DEC2006,30MAR2007,4,WEEK 4,2007-01-05,05JAN2007,29,,Week 4,4,"Thickness, Upper Extremities",THKUEX,7,,2,2,0,0,,23-36 DAYS,29,0,23,36,DAYS,,Y,,,,,2,2
BBC,BBC-10-145,145,10,70,ARM A,1,ARM A,1,Y,Y,Y,N,08DEC2006,30MAR2007,6,WEEK 6,2007-01-23,23JAN2007,47,,Week 6,6,"Thickness, Upper Extremities",THKUEX,7,,0,2,-2,-100,,37-50 DAYS,43,4,37,50,DAYS,,Y,,,,,0,2
BBC,BBC-10-145,145,10,71,ARM A,1,ARM A,1,Y,Y,Y,N,08DEC2006,30MAR2007,8,WEEK 8,2007-02-16,16FEB2007,71,,Week 8,8,"Thickness, Upper Extremities",THKUEX,7,,0,2,-2,-100,,51-71 DAYS,57,14,51,71,DAYS,,Y,,,,,0,2
BBC,BBC-10-145,145,10,67,ARM A,1,ARM A,1,Y,Y,Y,N,08DEC2006,30MAR2007,12,WEEK 12,,,,,Week 12,12,"Thickness, Upper Extremities",THKUEX,7,,0,2,,,LOCF,,,,,,,,Y,,,,,0,2
BBC,BBC-10-145,145,10,48,ARM A,1,ARM A,1,Y,Y,Y,N,08DEC2006,30MAR2007,12,WEEK 12,2007-03-30,30MAR2007,113,,,,"Thickness, Trunk",THKTRUNK,8,,0,0,0,,,,,,,,,,,,,,,0,0
BBC,BBC-10-145,145,10,43,ARM A,1,ARM A,1,Y,Y,Y,N,08DEC2006,30MAR2007,1,DAY 1,2006-12-08,08DEC2006,1,,Day 1 Baseline,0,"Thickness, Trunk",THKTRUNK,8,,0,0,,,,,,,,,,Y,Y,,,,,,0
BBC,BBC-10-145,145,10,44,ARM A,1,ARM A,1,Y,Y,Y,N,08DEC2006,30MAR2007,2,WEEK 2,2006-12-20,20DEC2006,13,,Week 2,2,"Thickness, Trunk",THKTRUNK,8,,0,0,0,,,8-22 DAYS,15,2,8,22,DAYS,,Y,,,,,0,0
BBC,BBC-10-145,145,10,45,ARM A,1,ARM A,1,Y,Y,Y,N,08DEC2006,30MAR2007,4,WEEK 4,2007-01-05,05JAN2007,29,,Week 4,4,"Thickness, Trunk",THKTRUNK,8,,0,0,0,,,23-36 DAYS,29,0,23,36,DAYS,,Y,,,,,0,0
BBC,BBC-10-145,145,10,46,ARM A,1,ARM A,1,Y,Y,Y,N,08DEC2006,30MAR2007,6,WEEK 6,2007-01-23,23JAN2007,47,,Week 6,6,"Thickness, Trunk",THKTRUNK,8,,0,0,0,,,37-50 DAYS,43,4,37,50,DAYS,,Y,,,,,0,0
BBC,BBC-10-145,145,10,47,ARM A,1,ARM A,1,Y,Y,Y,N,08DEC2006,30MAR2007,8,WEEK 8,2007-02-16,16FEB2007,71,,Week 8,8,"Thickness, Trunk",THKTRUNK,8,,0,0,0,,,51-71 DAYS,57,14,51,71,DAYS,,Y,,,,,0,0
BBC,BBC-10-145,145,10,43,ARM A,1,ARM A,1,Y,Y,Y,N,08DEC2006,30MAR2007,12,WEEK 12,,,,,Week 12,12,"Thickness, Trunk",THKTRUNK,8,,0,0,,,LOCF,,,,,,,,Y,,,,,0,0
BBC,BBC-10-145,145,10,24,ARM A,1,ARM A,1,Y,Y,Y,N,08DEC2006,30MAR2007,12,WEEK 12,2007-03-30,30MAR2007,113,,,,"Thickness, Lower Extremities",THKLEX,9,,0,2,-2,-100,,,,,,,,,,,,,,0,2
BBC,BBC-10-145,145,10,19,ARM A,1,ARM A,1,Y,Y,Y,N,08DEC2006,30MAR2007,1,DAY 1,2006-12-08,08DEC2006,1,,Day 1 Baseline,0,"Thickness, Lower Extremities",THKLEX,9,,2,2,,,,,,,,,,Y,Y,,,,,,2
BBC,BBC-10-145,145,10,20,ARM A,1,ARM A,1,Y,Y,Y,N,08DEC2006,30MAR2007,2,WEEK 2,2006-12-20,20DEC2006,13,,Week 2,2,"Thickness, Lower Extremities",THKLEX,9,,2,2,0,0,,8-22 DAYS,15,2,8,22,DAYS,,Y,,,,,2,2
BBC,BBC-10-145,145,10,21,ARM A,1,ARM A,1,Y,Y,Y,N,08DEC2006,30MAR2007,4,WEEK 4,2007-01-05,05JAN2007,29,,Week 4,4,"Thickness, Lower Extremities",THKLEX,9,,1,2,-1,-50,,23-36 DAYS,29,0,23,36,DAYS,,Y,,,,,1,2
BBC,BBC-10-145,145,10,22,ARM A,1,ARM A,1,Y,Y,Y,N,08DEC2006,30MAR2007,6,WEEK 6,2007-01-23,23JAN2007,47,,Week 6,6,"Thickness, Lower Extremities",THKLEX,9,,0,2,-2,-100,,37-50 DAYS,43,4,37,50,DAYS,,Y,,,,,0,2
BBC,BBC-10-145,145,10,23,ARM A,1,ARM A,1,Y,Y,Y,N,08DEC2006,30MAR2007,8,WEEK 8,2007-02-16,16FEB2007,71,,Week 8,8,"Thickness, Lower Extremities",THKLEX,9,,0,2,-2,-100,,51-71 DAYS,57,14,51,71,DAYS,,Y,,,,,0,2
BBC,BBC-10-145,145,10,19,ARM A,1,ARM A,1,Y,Y,Y,N,08DEC2006,30MAR2007,12,WEEK 12,,,,,Week 12,12,"Thickness, Lower Extremities",THKLEX,9,,0,2,,,LOCF,,,,,,,,Y,,,,,0,2
BBC,BBC-10-145,145,10,66,ARM A,1,ARM A,1,Y,Y,Y,N,08DEC2006,30MAR2007,12,WEEK 12,2007-03-30,30MAR2007,113,,,,"Scale, Upper Extremities",SCUEX,10,,0,3,-3,-100,,,,,,,,,,,,,,0,3
BBC,BBC-10-145,145,10,61,ARM A,1,ARM A,1,Y,Y,Y,N,08DEC2006,30MAR2007,1,DAY 1,2006-12-08,08DEC2006,1,,Day 1 Baseline,0,"Scale, Upper Extremities",SCUEX,10,,3,3,,,,,,,,,,Y,Y,,,,,,3
BBC,BBC-10-145,145,10,62,ARM A,1,ARM A,1,Y,Y,Y,N,08DEC2006,30MAR2007,2,WEEK 2,2006-12-20,20DEC2006,13,,Week 2,2,"Scale, Upper Extremities",SCUEX,10,,3,3,0,0,,8-22 DAYS,15,2,8,22,DAYS,,Y,,,,,3,3
BBC,BBC-10-145,145,10,63,ARM A,1,ARM A,1,Y,Y,Y,N,08DEC2006,30MAR2007,4,WEEK 4,2007-01-05,05JAN2007,29,,Week 4,4,"Scale, Upper Extremities",SCUEX,10,,2,3,-1,-33.3,,23-36 DAYS,29,0,23,36,DAYS,,Y,,,,,2,3
BBC,BBC-10-145,145,10,64,ARM A,1,ARM A,1,Y,Y,Y,N,08DEC2006,30MAR2007,6,WEEK 6,2007-01-23,23JAN2007,47,,Week 6,6,"Scale, Upper Extremities",SCUEX,10,,1,3,-2,-66.7,,37-50 DAYS,43,4,37,50,DAYS,,Y,,,,,1,3
BBC,BBC-10-145,145,10,65,ARM A,1,ARM A,1,Y,Y,Y,N,08DEC2006,30MAR2007,8,WEEK 8,2007-02-16,16FEB2007,71,,Week 8,8,"Scale, Upper Extremities",SCUEX,10,,0,3,-3,-100,,51-71 DAYS,57,14,51,71,DAYS,,Y,,,,,0,3
BBC,BBC-10-145,145,10,61,ARM A,1,ARM A,1,Y,Y,Y,N,08DEC2006,30MAR2007,12,WEEK 12,,,,,Week 12,12,"Scale, Upper Extremities",SCUEX,10,,0,3,,,LOCF,,,,,,,,Y,,,,,0,3
BBC,BBC-10-145,145,10,42,ARM A,1,ARM A,1,Y,Y,Y,N,08DEC2006,30MAR2007,12,WEEK 12,2007-03-30,30MAR2007,113,,,,"Scale, Trunk",SCTRUNK,11,,0,0,0,,,,,,,,,,,,,,,0,0
BBC,BBC-10-145,145,10,37,ARM A,1,ARM A,1,Y,Y,Y,N,08DEC2006,30MAR2007,1,DAY 1,2006-12-08,08DEC2006,1,,Day 1 Baseline,0,"Scale, Trunk",SCTRUNK,11,,0,0,,,,,,,,,,Y,Y,,,,,,0
BBC,BBC-10-145,145,10,38,ARM A,1,ARM A,1,Y,Y,Y,N,08DEC2006,30MAR2007,2,WEEK 2,2006-12-20,20DEC2006,13,,Week 2,2,"Scale, Trunk",SCTRUNK,11,,0,0,0,,,8-22 DAYS,15,2,8,22,DAYS,,Y,,,,,0,0
BBC,BBC-10-145,145,10,39,ARM A,1,ARM A,1,Y,Y,Y,N,08DEC2006,30MAR2007,4,WEEK 4,2007-01-05,05JAN2007,29,,Week 4,4,"Scale, Trunk",SCTRUNK,11,,0,0,0,,,23-36 DAYS,29,0,23,36,DAYS,,Y,,,,,0,0
BBC,BBC-10-145,145,10,40,ARM A,1,ARM A,1,Y,Y,Y,N,08DEC2006,30MAR2007,6,WEEK 6,2007-01-23,23JAN2007,47,,Week 6,6,"Scale, Trunk",SCTRUNK,11,,0,0,0,,,37-50 DAYS,43,4,37,50,DAYS,,Y,,,,,0,0
BBC,BBC-10-145,145,10,41,ARM A,1,ARM A,1,Y,Y,Y,N,08DEC2006,30MAR2007,8,WEEK 8,2007-02-16,16FEB2007,71,,Week 8,8,"Scale, Trunk",SCTRUNK,11,,0,0,0,,,51-71 DAYS,57,14,51,71,DAYS,,Y,,,,,0,0
BBC,BBC-10-145,145,10,37,ARM A,1,ARM A,1,Y,Y,Y,N,08DEC2006,30MAR2007,12,WEEK 12,,,,,Week 12,12,"Scale, Trunk",SCTRUNK,11,,0,0,,,LOCF,,,,,,,,Y,,,,,0,0
BBC,BBC-10-145,145,10,18,ARM A,1,ARM A,1,Y,Y,Y,N,08DEC2006,30MAR2007,12,WEEK 12,2007-03-30,30MAR2007,113,,,,"Scale, Lower Extremities",SCLEX,12,,0,2,-2,-100,,,,,,,,,,,,,,0,2
BBC,BBC-10-145,145,10,13,ARM A,1,ARM A,1,Y,Y,Y,N,08DEC2006,30MAR2007,1,DAY 1,2006-12-08,08DEC2006,1,,Day 1 Baseline,0,"Scale, Lower Extremities",SCLEX,12,,2,2,,,,,,,,,,Y,Y,,,,,,2
BBC,BBC-10-145,145,10,14,ARM A,1,ARM A,1,Y,Y,Y,N,08DEC2006,30MAR2007,2,WEEK 2,2006-12-20,20DEC2006,13,,Week 2,2,"Scale, Lower Extremities",SCLEX,12,,2,2,0,0,,8-22 DAYS,15,2,8,22,DAYS,,Y,,,,,2,2
BBC,BBC-10-145,145,10,15,ARM A,1,ARM A,1,Y,Y,Y,N,08DEC2006,30MAR2007,4,WEEK 4,2007-01-05,05JAN2007,29,,Week 4,4,"Scale, Lower Extremities",SCLEX,12,,1,2,-1,-50,,23-36 DAYS,29,0,23,36,DAYS,,Y,,,,,1,2
BBC,BBC-10-145,145,10,16,ARM A,1,ARM A,1,Y,Y,Y,N,08DEC2006,30MAR2007,6,WEEK 6,2007-01-23,23JAN2007,47,,Week 6,6,"Scale, Lower Extremities",SCLEX,12,,0,2,-2,-100,,37-50 DAYS,43,4,37,50,DAYS,,Y,,,,,0,2
BBC,BBC-10-145,145,10,17,ARM A,1,ARM A,1,Y,Y,Y,N,08DEC2006,30MAR2007,8,WEEK 8,2007-02-16,16FEB2007,71,,Week 8,8,"Scale, Lower Extremities",SCLEX,12,,0,2,-2,-100,,51-71 DAYS,57,14,51,71,DAYS,,Y,,,,,0,2
BBC,BBC-10-145,145,10,13,ARM A,1,ARM A,1,Y,Y,Y,N,08DEC2006,30MAR2007,12,WEEK 12,,,,,Week 12,12,"Scale, Lower Extremities",SCLEX,12,,0,2,,,LOCF,,,,,,,,Y,,,,,0,2
BBC,BBC-10-145,145,10,72,ARM A,1,ARM A,1,Y,Y,Y,N,08DEC2006,30MAR2007,12,WEEK 12,2007-03-30,30MAR2007,113,,,,Area Adjusted Psoriasis Area and Severity Index,PASISCOR,13,DERIVED,0.2,4.1,-3.9,-95.1,,,,,,,,,,Improvement in AAPASI score from baseline of at least 75%,Y,Improvement in AAPASI score from baseline of at least 50%,Y,0.2,4.1
BBC,BBC-10-145,145,10,67,ARM A,1,ARM A,1,Y,Y,Y,N,08DEC2006,30MAR2007,1,DAY 1,2006-12-08,08DEC2006,1,,Day 1 Baseline,0,Area Adjusted Psoriasis Area and Severity Index,PASISCOR,13,DERIVED,4.1,4.1,,,,,,,,,,Y,Y,,,,,,4.1
BBC,BBC-10-145,145,10,68,ARM A,1,ARM A,1,Y,Y,Y,N,08DEC2006,30MAR2007,2,WEEK 2,2006-12-20,20DEC2006,13,,Week 2,2,Area Adjusted Psoriasis Area and Severity Index,PASISCOR,13,DERIVED,4.1,4.1,0,0,,8-22 DAYS,15,2,8,22,DAYS,,Y,,,,,4.1,4.1
BBC,BBC-10-145,145,10,69,ARM A,1,ARM A,1,Y,Y,Y,N,08DEC2006,30MAR2007,4,WEEK 4,2007-01-05,05JAN2007,29,,Week 4,4,Area Adjusted Psoriasis Area and Severity Index,PASISCOR,13,DERIVED,2.4,4.1,-1.7,-41.5,,23-36 DAYS,29,0,23,36,DAYS,,Y,,,,,2.4,4.1
BBC,BBC-10-145,145,10,70,ARM A,1,ARM A,1,Y,Y,Y,N,08DEC2006,30MAR2007,6,WEEK 6,2007-01-23,23JAN2007,47,,Week 6,6,Area Adjusted Psoriasis Area and Severity Index,PASISCOR,13,DERIVED,0.4,4.1,-3.7,-90.2,,37-50 DAYS,43,4,37,50,DAYS,,Y,Improvement in AAPASI score from baseline of at least 75%,Y,Improvement in AAPASI score from baseline of at least 50%,Y,0.4,4.1
BBC,BBC-10-145,145,10,71,ARM A,1,ARM A,1,Y,Y,Y,N,08DEC2006,30MAR2007,8,WEEK 8,2007-02-16,16FEB2007,71,,Week 8,8,Area Adjusted Psoriasis Area and Severity Index,PASISCOR,13,DERIVED,0,4.1,-4.1,-100,,51-71 DAYS,57,14,51,71,DAYS,,Y,Improvement in AAPASI score from baseline of at least 75%,Y,Improvement in AAPASI score from baseline of at least 50%,Y,0,4.1
BBC,BBC-10-145,145,10,67,ARM A,1,ARM A,1,Y,Y,Y,N,08DEC2006,30MAR2007,12,WEEK 12,,,,,Week 12,12,Area Adjusted Psoriasis Area and Severity Index,PASISCOR,13,,0,4.1,,,LOCF,,,,,,,,Y,,,,,0,4.1
BBC,BBC-10-146,146,10,57,ARM D,4,ARM D,4,Y,Y,Y,Y,11DEC2006,16MAR2007,1,DAY 1,2006-12-11,11DEC2006,1,,Day 1 Baseline,0,"Area Score, Upper Extremities",ASUEX,1,,1,1,,,,,,,,,,Y,Y,,,,,,1
BBC,BBC-10-146,146,10,58,ARM D,4,ARM D,4,Y,Y,Y,Y,11DEC2006,16MAR2007,2,WEEK 2,2006-12-29,29DEC2006,19,,Week 2,2,"Area Score, Upper Extremities",ASUEX,1,,1,1,0,0,,8-22 DAYS,15,4,8,22,DAYS,,Y,,,,,1,1
BBC,BBC-10-146,146,10,59,ARM D,4,ARM D,4,Y,Y,Y,Y,11DEC2006,16MAR2007,4,WEEK 4,2007-01-11,11JAN2007,32,,Week 4,4,"Area Score, Upper Extremities",ASUEX,1,,1,1,0,0,,23-36 DAYS,29,3,23,36,DAYS,,Y,,,,,1,1
BBC,BBC-10-146,146,10,60,ARM D,4,ARM D,4,Y,Y,Y,Y,11DEC2006,16MAR2007,6,WEEK 6,2007-01-25,25JAN2007,46,,Week 6,6,"Area Score, Upper Extremities",ASUEX,1,,1,1,0,0,,37-50 DAYS,43,3,37,50,DAYS,,Y,,,,,1,1
BBC,BBC-10-146,146,10,61,ARM D,4,ARM D,4,Y,Y,Y,Y,11DEC2006,16MAR2007,8,WEEK 8,2007-02-08,08FEB2007,60,,Week 8,8,"Area Score, Upper Extremities",ASUEX,1,,1,1,0,0,,51-71 DAYS,57,3,51,71,DAYS,,Y,,,,,1,1
BBC,BBC-10-146,146,10,62,ARM D,4,ARM D,4,Y,Y,Y,Y,11DEC2006,16MAR2007,12,WEEK 12,2007-03-16,16MAR2007,96,,Week 12,12,"Area Score, Upper Extremities",ASUEX,1,,1,1,0,0,,72-99 DAYS,85,11,72,99,DAYS,,Y,,,,,1,1
BBC,BBC-10-146,146,10,63,ARM D,4,ARM D,4,Y,Y,Y,Y,11DEC2006,16MAR2007,16,WEEK 16,2007-04-09,09APR2007,120,,Week 16,16,"Area Score, Upper Extremities",ASUEX,1,,1,1,0,0,,22-36 DAYS POST-LAST-DOSE,124,4,117,131,DAYS,,,,,,,1,1
BBC,BBC-10-146,146,10,29,ARM D,4,ARM D,4,Y,Y,Y,Y,11DEC2006,16MAR2007,1,DAY 1,2006-12-11,11DEC2006,1,,Day 1 Baseline,0,"Area Score, Trunk",ASTRUNK,2,,0,0,,,,,,,,,,Y,Y,,,,,,0
BBC,BBC-10-146,146,10,30,ARM D,4,ARM D,4,Y,Y,Y,Y,11DEC2006,16MAR2007,2,WEEK 2,2006-12-29,29DEC2006,19,,Week 2,2,"Area Score, Trunk",ASTRUNK,2,,0,0,0,,,8-22 DAYS,15,4,8,22,DAYS,,Y,,,,,0,0
BBC,BBC-10-146,146,10,31,ARM D,4,ARM D,4,Y,Y,Y,Y,11DEC2006,16MAR2007,4,WEEK 4,2007-01-11,11JAN2007,32,,Week 4,4,"Area Score, Trunk",ASTRUNK,2,,0,0,0,,,23-36 DAYS,29,3,23,36,DAYS,,Y,,,,,0,0
BBC,BBC-10-146,146,10,32,ARM D,4,ARM D,4,Y,Y,Y,Y,11DEC2006,16MAR2007,6,WEEK 6,2007-01-25,25JAN2007,46,,Week 6,6,"Area Score, Trunk",ASTRUNK,2,,0,0,0,,,37-50 DAYS,43,3,37,50,DAYS,,Y,,,,,0,0
BBC,BBC-10-146,146,10,33,ARM D,4,ARM D,4,Y,Y,Y,Y,11DEC2006,16MAR2007,8,WEEK 8,2007-02-08,08FEB2007,60,,Week 8,8,"Area Score, Trunk",ASTRUNK,2,,0,0,0,,,51-71 DAYS,57,3,51,71,DAYS,,Y,,,,,0,0
BBC,BBC-10-146,146,10,34,ARM D,4,ARM D,4,Y,Y,Y,Y,11DEC2006,16MAR2007,12,WEEK 12,2007-03-16,16MAR2007,96,,Week 12,12,"Area Score, Trunk",ASTRUNK,2,,0,0,0,,,72-99 DAYS,85,11,72,99,DAYS,,Y,,,,,0,0
BBC,BBC-10-146,146,10,35,ARM D,4,ARM D,4,Y,Y,Y,Y,11DEC2006,16MAR2007,16,WEEK 16,2007-04-09,09APR2007,120,,Week 16,16,"Area Score, Trunk",ASTRUNK,2,,0,0,0,,,22-36 DAYS POST-LAST-DOSE,124,4,117,131,DAYS,,,,,,,0,0
BBC,BBC-10-146,146,10,1,ARM D,4,ARM D,4,Y,Y,Y,Y,11DEC2006,16MAR2007,1,DAY 1,2006-12-11,11DEC2006,1,,Day 1 Baseline,0,"Area Score, Lower Extremities",ASLEX,3,,1,1,,,,,,,,,,Y,Y,,,,,,1
BBC,BBC-10-146,146,10,2,ARM D,4,ARM D,4,Y,Y,Y,Y,11DEC2006,16MAR2007,2,WEEK 2,2006-12-29,29DEC2006,19,,Week 2,2,"Area Score, Lower Extremities",ASLEX,3,,1,1,0,0,,8-22 DAYS,15,4,8,22,DAYS,,Y,,,,,1,1
BBC,BBC-10-146,146,10,3,ARM D,4,ARM D,4,Y,Y,Y,Y,11DEC2006,16MAR2007,4,WEEK 4,2007-01-11,11JAN2007,32,,Week 4,4,"Area Score, Lower Extremities",ASLEX,3,,1,1,0,0,,23-36 DAYS,29,3,23,36,DAYS,,Y,,,,,1,1
BBC,BBC-10-146,146,10,4,ARM D,4,ARM D,4,Y,Y,Y,Y,11DEC2006,16MAR2007,6,WEEK 6,2007-01-25,25JAN2007,46,,Week 6,6,"Area Score, Lower Extremities",ASLEX,3,,1,1,0,0,,37-50 DAYS,43,3,37,50,DAYS,,Y,,,,,1,1
BBC,BBC-10-146,146,10,5,ARM D,4,ARM D,4,Y,Y,Y,Y,11DEC2006,16MAR2007,8,WEEK 8,2007-02-08,08FEB2007,60,,Week 8,8,"Area Score, Lower Extremities",ASLEX,3,,1,1,0,0,,51-71 DAYS,57,3,51,71,DAYS,,Y,,,,,1,1
BBC,BBC-10-146,146,10,6,ARM D,4,ARM D,4,Y,Y,Y,Y,11DEC2006,16MAR2007,12,WEEK 12,2007-03-16,16MAR2007,96,,Week 12,12,"Area Score, Lower Extremities",ASLEX,3,,1,1,0,0,,72-99 DAYS,85,11,72,99,DAYS,,Y,,,,,1,1
BBC,BBC-10-146,146,10,7,ARM D,4,ARM D,4,Y,Y,Y,Y,11DEC2006,16MAR2007,16,WEEK 16,2007-04-09,09APR2007,120,,Week 16,16,"Area Score, Lower Extremities",ASLEX,3,,1,1,0,0,,22-36 DAYS POST-LAST-DOSE,124,4,117,131,DAYS,,,,,,,1,1
BBC,BBC-10-146,146,10,64,ARM D,4,ARM D,4,Y,Y,Y,Y,11DEC2006,16MAR2007,1,DAY 1,2006-12-11,11DEC2006,1,,Day 1 Baseline,0,"Erythema, Upper Extremities",ERUEX,4,,2,2,,,,,,,,,,Y,Y,,,,,,2
BBC,BBC-10-146,146,10,65,ARM D,4,ARM D,4,Y,Y,Y,Y,11DEC2006,16MAR2007,2,WEEK 2,2006-12-29,29DEC2006,19,,Week 2,2,"Erythema, Upper Extremities",ERUEX,4,,2,2,0,0,,8-22 DAYS,15,4,8,22,DAYS,,Y,,,,,2,2
BBC,BBC-10-146,146,10,66,ARM D,4,ARM D,4,Y,Y,Y,Y,11DEC2006,16MAR2007,4,WEEK 4,2007-01-11,11JAN2007,32,,Week 4,4,"Erythema, Upper Extremities",ERUEX,4,,2,2,0,0,,23-36 DAYS,29,3,23,36,DAYS,,Y,,,,,2,2
BBC,BBC-10-146,146,10,67,ARM D,4,ARM D,4,Y,Y,Y,Y,11DEC2006,16MAR2007,6,WEEK 6,2007-01-25,25JAN2007,46,,Week 6,6,"Erythema, Upper Extremities",ERUEX,4,,1,2,-1,-50,,37-50 DAYS,43,3,37,50,DAYS,,Y,,,,,1,2
BBC,BBC-10-146,146,10,68,ARM D,4,ARM D,4,Y,Y,Y,Y,11DEC2006,16MAR2007,8,WEEK 8,2007-02-08,08FEB2007,60,,Week 8,8,"Erythema, Upper Extremities",ERUEX,4,,1,2,-1,-50,,51-71 DAYS,57,3,51,71,DAYS,,Y,,,,,1,2
BBC,BBC-10-146,146,10,69,ARM D,4,ARM D,4,Y,Y,Y,Y,11DEC2006,16MAR2007,12,WEEK 12,2007-03-16,16MAR2007,96,,Week 12,12,"Erythema, Upper Extremities",ERUEX,4,,1,2,-1,-50,,72-99 DAYS,85,11,72,99,DAYS,,Y,,,,,1,2
BBC,BBC-10-146,146,10,70,ARM D,4,ARM D,4,Y,Y,Y,Y,11DEC2006,16MAR2007,16,WEEK 16,2007-04-09,09APR2007,120,,Week 16,16,"Erythema, Upper Extremities",ERUEX,4,,1,2,-1,-50,,22-36 DAYS POST-LAST-DOSE,124,4,117,131,DAYS,,,,,,,1,2
BBC,BBC-10-146,146,10,36,ARM D,4,ARM D,4,Y,Y,Y,Y,11DEC2006,16MAR2007,1,DAY 1,2006-12-11,11DEC2006,1,,Day 1 Baseline,0,"Erythema, Trunk",ERTRUNK,5,,0,0,,,,,,,,,,Y,Y,,,,,,0
BBC,BBC-10-146,146,10,37,ARM D,4,ARM D,4,Y,Y,Y,Y,11DEC2006,16MAR2007,2,WEEK 2,2006-12-29,29DEC2006,19,,Week 2,2,"Erythema, Trunk",ERTRUNK,5,,0,0,0,,,8-22 DAYS,15,4,8,22,DAYS,,Y,,,,,0,0
BBC,BBC-10-146,146,10,38,ARM D,4,ARM D,4,Y,Y,Y,Y,11DEC2006,16MAR2007,4,WEEK 4,2007-01-11,11JAN2007,32,,Week 4,4,"Erythema, Trunk",ERTRUNK,5,,0,0,0,,,23-36 DAYS,29,3,23,36,DAYS,,Y,,,,,0,0
BBC,BBC-10-146,146,10,39,ARM D,4,ARM D,4,Y,Y,Y,Y,11DEC2006,16MAR2007,6,WEEK 6,2007-01-25,25JAN2007,46,,Week 6,6,"Erythema, Trunk",ERTRUNK,5,,0,0,0,,,37-50 DAYS,43,3,37,50,DAYS,,Y,,,,,0,0
BBC,BBC-10-146,146,10,40,ARM D,4,ARM D,4,Y,Y,Y,Y,11DEC2006,16MAR2007,8,WEEK 8,2007-02-08,08FEB2007,60,,Week 8,8,"Erythema, Trunk",ERTRUNK,5,,0,0,0,,,51-71 DAYS,57,3,51,71,DAYS,,Y,,,,,0,0
BBC,BBC-10-146,146,10,41,ARM D,4,ARM D,4,Y,Y,Y,Y,11DEC2006,16MAR2007,12,WEEK 12,2007-03-16,16MAR2007,96,,Week 12,12,"Erythema, Trunk",ERTRUNK,5,,0,0,0,,,72-99 DAYS,85,11,72,99,DAYS,,Y,,,,,0,0
BBC,BBC-10-146,146,10,42,ARM D,4,ARM D,4,Y,Y,Y,Y,11DEC2006,16MAR2007,16,WEEK 16,2007-04-09,09APR2007,120,,Week 16,16,"Erythema, Trunk",ERTRUNK,5,,0,0,0,,,22-36 DAYS POST-LAST-DOSE,124,4,117,131,DAYS,,,,,,,0,0
BBC,BBC-10-146,146,10,8,ARM D,4,ARM D,4,Y,Y,Y,Y,11DEC2006,16MAR2007,1,DAY 1,2006-12-11,11DEC2006,1,,Day 1 Baseline,0,"Erythema, Lower Extremities",ERLEX,6,,3,3,,,,,,,,,,Y,Y,,,,,,3
BBC,BBC-10-146,146,10,9,ARM D,4,ARM D,4,Y,Y,Y,Y,11DEC2006,16MAR2007,2,WEEK 2,2006-12-29,29DEC2006,19,,Week 2,2,"Erythema, Lower Extremities",ERLEX,6,,3,3,0,0,,8-22 DAYS,15,4,8,22,DAYS,,Y,,,,,3,3
BBC,BBC-10-146,146,10,10,ARM D,4,ARM D,4,Y,Y,Y,Y,11DEC2006,16MAR2007,4,WEEK 4,2007-01-11,11JAN2007,32,,Week 4,4,"Erythema, Lower Extremities",ERLEX,6,,3,3,0,0,,23-36 DAYS,29,3,23,36,DAYS,,Y,,,,,3,3
BBC,BBC-10-146,146,10,11,ARM D,4,ARM D,4,Y,Y,Y,Y,11DEC2006,16MAR2007,6,WEEK 6,2007-01-25,25JAN2007,46,,Week 6,6,"Erythema, Lower Extremities",ERLEX,6,,2,3,-1,-33.3,,37-50 DAYS,43,3,37,50,DAYS,,Y,,,,,2,3
BBC,BBC-10-146,146,10,12,ARM D,4,ARM D,4,Y,Y,Y,Y,11DEC2006,16MAR2007,8,WEEK 8,2007-02-08,08FEB2007,60,,Week 8,8,"Erythema, Lower Extremities",ERLEX,6,,2,3,-1,-33.3,,51-71 DAYS,57,3,51,71,DAYS,,Y,,,,,2,3
BBC,BBC-10-146,146,10,13,ARM D,4,ARM D,4,Y,Y,Y,Y,11DEC2006,16MAR2007,12,WEEK 12,2007-03-16,16MAR2007,96,,Week 12,12,"Erythema, Lower Extremities",ERLEX,6,,2,3,-1,-33.3,,72-99 DAYS,85,11,72,99,DAYS,,Y,,,,,2,3
BBC,BBC-10-146,146,10,14,ARM D,4,ARM D,4,Y,Y,Y,Y,11DEC2006,16MAR2007,16,WEEK 16,2007-04-09,09APR2007,120,,Week 16,16,"Erythema, Lower Extremities",ERLEX,6,,2,3,-1,-33.3,,22-36 DAYS POST-LAST-DOSE,124,4,117,131,DAYS,,,,,,,2,3
BBC,BBC-10-146,146,10,78,ARM D,4,ARM D,4,Y,Y,Y,Y,11DEC2006,16MAR2007,1,DAY 1,2006-12-11,11DEC2006,1,,Day 1 Baseline,0,"Thickness, Upper Extremities",THKUEX,7,,2,2,,,,,,,,,,Y,Y,,,,,,2
BBC,BBC-10-146,146,10,79,ARM D,4,ARM D,4,Y,Y,Y,Y,11DEC2006,16MAR2007,2,WEEK 2,2006-12-29,29DEC2006,19,,Week 2,2,"Thickness, Upper Extremities",THKUEX,7,,2,2,0,0,,8-22 DAYS,15,4,8,22,DAYS,,Y,,,,,2,2
BBC,BBC-10-146,146,10,80,ARM D,4,ARM D,4,Y,Y,Y,Y,11DEC2006,16MAR2007,4,WEEK 4,2007-01-11,11JAN2007,32,,Week 4,4,"Thickness, Upper Extremities",THKUEX,7,,2,2,0,0,,23-36 DAYS,29,3,23,36,DAYS,,Y,,,,,2,2
BBC,BBC-10-146,146,10,81,ARM D,4,ARM D,4,Y,Y,Y,Y,11DEC2006,16MAR2007,6,WEEK 6,2007-01-25,25JAN2007,46,,Week 6,6,"Thickness, Upper Extremities",THKUEX,7,,0,2,-2,-100,,37-50 DAYS,43,3,37,50,DAYS,,Y,,,,,0,2
BBC,BBC-10-146,146,10,82,ARM D,4,ARM D,4,Y,Y,Y,Y,11DEC2006,16MAR2007,8,WEEK 8,2007-02-08,08FEB2007,60,,Week 8,8,"Thickness, Upper Extremities",THKUEX,7,,0,2,-2,-100,,51-71 DAYS,57,3,51,71,DAYS,,Y,,,,,0,2
BBC,BBC-10-146,146,10,83,ARM D,4,ARM D,4,Y,Y,Y,Y,11DEC2006,16MAR2007,12,WEEK 12,2007-03-16,16MAR2007,96,,Week 12,12,"Thickness, Upper Extremities",THKUEX,7,,1,2,-1,-50,,72-99 DAYS,85,11,72,99,DAYS,,Y,,,,,1,2
BBC,BBC-10-146,146,10,84,ARM D,4,ARM D,4,Y,Y,Y,Y,11DEC2006,16MAR2007,16,WEEK 16,2007-04-09,09APR2007,120,,Week 16,16,"Thickness, Upper Extremities",THKUEX,7,,1,2,-1,-50,,22-36 DAYS POST-LAST-DOSE,124,4,117,131,DAYS,,,,,,,1,2
BBC,BBC-10-146,146,10,50,ARM D,4,ARM D,4,Y,Y,Y,Y,11DEC2006,16MAR2007,1,DAY 1,2006-12-11,11DEC2006,1,,Day 1 Baseline,0,"Thickness, Trunk",THKTRUNK,8,,0,0,,,,,,,,,,Y,Y,,,,,,0
BBC,BBC-10-146,146,10,51,ARM D,4,ARM D,4,Y,Y,Y,Y,11DEC2006,16MAR2007,2,WEEK 2,2006-12-29,29DEC2006,19,,Week 2,2,"Thickness, Trunk",THKTRUNK,8,,0,0,0,,,8-22 DAYS,15,4,8,22,DAYS,,Y,,,,,0,0
BBC,BBC-10-146,146,10,52,ARM D,4,ARM D,4,Y,Y,Y,Y,11DEC2006,16MAR2007,4,WEEK 4,2007-01-11,11JAN2007,32,,Week 4,4,"Thickness, Trunk",THKTRUNK,8,,0,0,0,,,23-36 DAYS,29,3,23,36,DAYS,,Y,,,,,0,0
BBC,BBC-10-146,146,10,53,ARM D,4,ARM D,4,Y,Y,Y,Y,11DEC2006,16MAR2007,6,WEEK 6,2007-01-25,25JAN2007,46,,Week 6,6,"Thickness, Trunk",THKTRUNK,8,,0,0,0,,,37-50 DAYS,43,3,37,50,DAYS,,Y,,,,,0,0
BBC,BBC-10-146,146,10,54,ARM D,4,ARM D,4,Y,Y,Y,Y,11DEC2006,16MAR2007,8,WEEK 8,2007-02-08,08FEB2007,60,,Week 8,8,"Thickness, Trunk",THKTRUNK,8,,0,0,0,,,51-71 DAYS,57,3,51,71,DAYS,,Y,,,,,0,0
BBC,BBC-10-146,146,10,55,ARM D,4,ARM D,4,Y,Y,Y,Y,11DEC2006,16MAR2007,12,WEEK 12,2007-03-16,16MAR2007,96,,Week 12,12,"Thickness, Trunk",THKTRUNK,8,,0,0,0,,,72-99 DAYS,85,11,72,99,DAYS,,Y,,,,,0,0
BBC,BBC-10-146,146,10,56,ARM D,4,ARM D,4,Y,Y,Y,Y,11DEC2006,16MAR2007,16,WEEK 16,2007-04-09,09APR2007,120,,Week 16,16,"Thickness, Trunk",THKTRUNK,8,,0,0,0,,,22-36 DAYS POST-LAST-DOSE,124,4,117,131,DAYS,,,,,,,0,0
BBC,BBC-10-146,146,10,22,ARM D,4,ARM D,4,Y,Y,Y,Y,11DEC2006,16MAR2007,1,DAY 1,2006-12-11,11DEC2006,1,,Day 1 Baseline,0,"Thickness, Lower Extremities",THKLEX,9,,3,3,,,,,,,,,,Y,Y,,,,,,3
BBC,BBC-10-146,146,10,23,ARM D,4,ARM D,4,Y,Y,Y,Y,11DEC2006,16MAR2007,2,WEEK 2,2006-12-29,29DEC2006,19,,Week 2,2,"Thickness, Lower Extremities",THKLEX,9,,3,3,0,0,,8-22 DAYS,15,4,8,22,DAYS,,Y,,,,,3,3
BBC,BBC-10-146,146,10,24,ARM D,4,ARM D,4,Y,Y,Y,Y,11DEC2006,16MAR2007,4,WEEK 4,2007-01-11,11JAN2007,32,,Week 4,4,"Thickness, Lower Extremities",THKLEX,9,,3,3,0,0,,23-36 DAYS,29,3,23,36,DAYS,,Y,,,,,3,3
BBC,BBC-10-146,146,10,25,ARM D,4,ARM D,4,Y,Y,Y,Y,11DEC2006,16MAR2007,6,WEEK 6,2007-01-25,25JAN2007,46,,Week 6,6,"Thickness, Lower Extremities",THKLEX,9,,1,3,-2,-66.7,,37-50 DAYS,43,3,37,50,DAYS,,Y,,,,,1,3
BBC,BBC-10-146,146,10,26,ARM D,4,ARM D,4,Y,Y,Y,Y,11DEC2006,16MAR2007,8,WEEK 8,2007-02-08,08FEB2007,60,,Week 8,8,"Thickness, Lower Extremities",THKLEX,9,,2,3,-1,-33.3,,51-71 DAYS,57,3,51,71,DAYS,,Y,,,,,2,3
BBC,BBC-10-146,146,10,27,ARM D,4,ARM D,4,Y,Y,Y,Y,11DEC2006,16MAR2007,12,WEEK 12,2007-03-16,16MAR2007,96,,Week 12,12,"Thickness, Lower Extremities",THKLEX,9,,2,3,-1,-33.3,,72-99 DAYS,85,11,72,99,DAYS,,Y,,,,,2,3
BBC,BBC-10-146,146,10,28,ARM D,4,ARM D,4,Y,Y,Y,Y,11DEC2006,16MAR2007,16,WEEK 16,2007-04-09,09APR2007,120,,Week 16,16,"Thickness, Lower Extremities",THKLEX,9,,1,3,-2,-66.7,,22-36 DAYS POST-LAST-DOSE,124,4,117,131,DAYS,,,,,,,1,3
BBC,BBC-10-146,146,10,71,ARM D,4,ARM D,4,Y,Y,Y,Y,11DEC2006,16MAR2007,1,DAY 1,2006-12-11,11DEC2006,1,,Day 1 Baseline,0,"Scale, Upper Extremities",SCUEX,10,,2,2,,,,,,,,,,Y,Y,,,,,,2
BBC,BBC-10-146,146,10,72,ARM D,4,ARM D,4,Y,Y,Y,Y,11DEC2006,16MAR2007,2,WEEK 2,2006-12-29,29DEC2006,19,,Week 2,2,"Scale, Upper Extremities",SCUEX,10,,2,2,0,0,,8-22 DAYS,15,4,8,22,DAYS,,Y,,,,,2,2
BBC,BBC-10-146,146,10,73,ARM D,4,ARM D,4,Y,Y,Y,Y,11DEC2006,16MAR2007,4,WEEK 4,2007-01-11,11JAN2007,32,,Week 4,4,"Scale, Upper Extremities",SCUEX,10,,2,2,0,0,,23-36 DAYS,29,3,23,36,DAYS,,Y,,,,,2,2
BBC,BBC-10-146,146,10,74,ARM D,4,ARM D,4,Y,Y,Y,Y,11DEC2006,16MAR2007,6,WEEK 6,2007-01-25,25JAN2007,46,,Week 6,6,"Scale, Upper Extremities",SCUEX,10,,0,2,-2,-100,,37-50 DAYS,43,3,37,50,DAYS,,Y,,,,,0,2
BBC,BBC-10-146,146,10,75,ARM D,4,ARM D,4,Y,Y,Y,Y,11DEC2006,16MAR2007,8,WEEK 8,2007-02-08,08FEB2007,60,,Week 8,8,"Scale, Upper Extremities",SCUEX,10,,1,2,-1,-50,,51-71 DAYS,57,3,51,71,DAYS,,Y,,,,,1,2
BBC,BBC-10-146,146,10,76,ARM D,4,ARM D,4,Y,Y,Y,Y,11DEC2006,16MAR2007,12,WEEK 12,2007-03-16,16MAR2007,96,,Week 12,12,"Scale, Upper Extremities",SCUEX,10,,1,2,-1,-50,,72-99 DAYS,85,11,72,99,DAYS,,Y,,,,,1,2
BBC,BBC-10-146,146,10,77,ARM D,4,ARM D,4,Y,Y,Y,Y,11DEC2006,16MAR2007,16,WEEK 16,2007-04-09,09APR2007,120,,Week 16,16,"Scale, Upper Extremities",SCUEX,10,,1,2,-1,-50,,22-36 DAYS POST-LAST-DOSE,124,4,117,131,DAYS,,,,,,,1,2
BBC,BBC-10-146,146,10,43,ARM D,4,ARM D,4,Y,Y,Y,Y,11DEC2006,16MAR2007,1,DAY 1,2006-12-11,11DEC2006,1,,Day 1 Baseline,0,"Scale, Trunk",SCTRUNK,11,,0,0,,,,,,,,,,Y,Y,,,,,,0
BBC,BBC-10-146,146,10,44,ARM D,4,ARM D,4,Y,Y,Y,Y,11DEC2006,16MAR2007,2,WEEK 2,2006-12-29,29DEC2006,19,,Week 2,2,"Scale, Trunk",SCTRUNK,11,,0,0,0,,,8-22 DAYS,15,4,8,22,DAYS,,Y,,,,,0,0
BBC,BBC-10-146,146,10,45,ARM D,4,ARM D,4,Y,Y,Y,Y,11DEC2006,16MAR2007,4,WEEK 4,2007-01-11,11JAN2007,32,,Week 4,4,"Scale, Trunk",SCTRUNK,11,,0,0,0,,,23-36 DAYS,29,3,23,36,DAYS,,Y,,,,,0,0
BBC,BBC-10-146,146,10,46,ARM D,4,ARM D,4,Y,Y,Y,Y,11DEC2006,16MAR2007,6,WEEK 6,2007-01-25,25JAN2007,46,,Week 6,6,"Scale, Trunk",SCTRUNK,11,,0,0,0,,,37-50 DAYS,43,3,37,50,DAYS,,Y,,,,,0,0
BBC,BBC-10-146,146,10,47,ARM D,4,ARM D,4,Y,Y,Y,Y,11DEC2006,16MAR2007,8,WEEK 8,2007-02-08,08FEB2007,60,,Week 8,8,"Scale, Trunk",SCTRUNK,11,,0,0,0,,,51-71 DAYS,57,3,51,71,DAYS,,Y,,,,,0,0
BBC,BBC-10-146,146,10,48,ARM D,4,ARM D,4,Y,Y,Y,Y,11DEC2006,16MAR2007,12,WEEK 12,2007-03-16,16MAR2007,96,,Week 12,12,"Scale, Trunk",SCTRUNK,11,,0,0,0,,,72-99 DAYS,85,11,72,99,DAYS,,Y,,,,,0,0
BBC,BBC-10-146,146,10,49,ARM D,4,ARM D,4,Y,Y,Y,Y,11DEC2006,16MAR2007,16,WEEK 16,2007-04-09,09APR2007,120,,Week 16,16,"Scale, Trunk",SCTRUNK,11,,0,0,0,,,22-36 DAYS POST-LAST-DOSE,124,4,117,131,DAYS,,,,,,,0,0
BBC,BBC-10-146,146,10,15,ARM D,4,ARM D,4,Y,Y,Y,Y,11DEC2006,16MAR2007,1,DAY 1,2006-12-11,11DEC2006,1,,Day 1 Baseline,0,"Scale, Lower Extremities",SCLEX,12,,3,3,,,,,,,,,,Y,Y,,,,,,3
BBC,BBC-10-146,146,10,16,ARM D,4,ARM D,4,Y,Y,Y,Y,11DEC2006,16MAR2007,2,WEEK 2,2006-12-29,29DEC2006,19,,Week 2,2,"Scale, Lower Extremities",SCLEX,12,,3,3,0,0,,8-22 DAYS,15,4,8,22,DAYS,,Y,,,,,3,3
BBC,BBC-10-146,146,10,17,ARM D,4,ARM D,4,Y,Y,Y,Y,11DEC2006,16MAR2007,4,WEEK 4,2007-01-11,11JAN2007,32,,Week 4,4,"Scale, Lower Extremities",SCLEX,12,,3,3,0,0,,23-36 DAYS,29,3,23,36,DAYS,,Y,,,,,3,3
BBC,BBC-10-146,146,10,18,ARM D,4,ARM D,4,Y,Y,Y,Y,11DEC2006,16MAR2007,6,WEEK 6,2007-01-25,25JAN2007,46,,Week 6,6,"Scale, Lower Extremities",SCLEX,12,,3,3,0,0,,37-50 DAYS,43,3,37,50,DAYS,,Y,,,,,3,3
BBC,BBC-10-146,146,10,19,ARM D,4,ARM D,4,Y,Y,Y,Y,11DEC2006,16MAR2007,8,WEEK 8,2007-02-08,08FEB2007,60,,Week 8,8,"Scale, Lower Extremities",SCLEX,12,,3,3,0,0,,51-71 DAYS,57,3,51,71,DAYS,,Y,,,,,3,3
BBC,BBC-10-146,146,10,20,ARM D,4,ARM D,4,Y,Y,Y,Y,11DEC2006,16MAR2007,12,WEEK 12,2007-03-16,16MAR2007,96,,Week 12,12,"Scale, Lower Extremities",SCLEX,12,,2,3,-1,-33.3,,72-99 DAYS,85,11,72,99,DAYS,,Y,,,,,2,3
BBC,BBC-10-146,146,10,21,ARM D,4,ARM D,4,Y,Y,Y,Y,11DEC2006,16MAR2007,16,WEEK 16,2007-04-09,09APR2007,120,,Week 16,16,"Scale, Lower Extremities",SCLEX,12,,2,3,-1,-33.3,,22-36 DAYS POST-LAST-DOSE,124,4,117,131,DAYS,,,,,,,2,3
BBC,BBC-10-146,146,10,78,ARM D,4,ARM D,4,Y,Y,Y,Y,11DEC2006,16MAR2007,1,DAY 1,2006-12-11,11DEC2006,1,,Day 1 Baseline,0,Area Adjusted Psoriasis Area and Severity Index,PASISCOR,13,DERIVED,5.2,5.2,,,,,,,,,,Y,Y,,,,,,5.2
BBC,BBC-10-146,146,10,79,ARM D,4,ARM D,4,Y,Y,Y,Y,11DEC2006,16MAR2007,2,WEEK 2,2006-12-29,29DEC2006,19,,Week 2,2,Area Adjusted Psoriasis Area and Severity Index,PASISCOR,13,DERIVED,5.2,5.2,0,0,,8-22 DAYS,15,4,8,22,DAYS,,Y,,,,,5.2,5.2
BBC,BBC-10-146,146,10,80,ARM D,4,ARM D,4,Y,Y,Y,Y,11DEC2006,16MAR2007,4,WEEK 4,2007-01-11,11JAN2007,32,,Week 4,4,Area Adjusted Psoriasis Area and Severity Index,PASISCOR,13,DERIVED,5.2,5.2,0,0,,23-36 DAYS,29,3,23,36,DAYS,,Y,,,,,5.2,5.2
BBC,BBC-10-146,146,10,81,ARM D,4,ARM D,4,Y,Y,Y,Y,11DEC2006,16MAR2007,6,WEEK 6,2007-01-25,25JAN2007,46,,Week 6,6,Area Adjusted Psoriasis Area and Severity Index,PASISCOR,13,DERIVED,2.9,5.2,-2.3,-44.2,,37-50 DAYS,43,3,37,50,DAYS,,Y,,,,,2.9,5.2
BBC,BBC-10-146,146,10,82,ARM D,4,ARM D,4,Y,Y,Y,Y,11DEC2006,16MAR2007,8,WEEK 8,2007-02-08,08FEB2007,60,,Week 8,8,Area Adjusted Psoriasis Area and Severity Index,PASISCOR,13,DERIVED,3.5,5.2,-1.7,-32.7,,51-71 DAYS,57,3,51,71,DAYS,,Y,,,,,3.5,5.2
BBC,BBC-10-146,146,10,83,ARM D,4,ARM D,4,Y,Y,Y,Y,11DEC2006,16MAR2007,12,WEEK 12,2007-03-16,16MAR2007,96,,Week 12,12,Area Adjusted Psoriasis Area and Severity Index,PASISCOR,13,DERIVED,3.3,5.2,-1.9,-36.5,,72-99 DAYS,85,11,72,99,DAYS,,Y,,,,,3.3,5.2
BBC,BBC-10-146,146,10,84,ARM D,4,ARM D,4,Y,Y,Y,Y,11DEC2006,16MAR2007,16,WEEK 16,2007-04-09,09APR2007,120,,Week 16,16,Area Adjusted Psoriasis Area and Severity Index,PASISCOR,13,DERIVED,2.8,5.2,-2.4,-46.2,,22-36 DAYS POST-LAST-DOSE,124,4,117,131,DAYS,,,,,,,2.8,5.2
BBC,BBC-10-147,147,10,63,ARM C,3,ARM C,3,Y,Y,Y,Y,12DEC2006,18MAR2007,16,WEEK 16,2007-04-02,02APR2007,112,,,,"Area Score, Upper Extremities",ASUEX,1,,1,1,0,0,,,,,,,,,,,,,,1,1
BBC,BBC-10-147,147,10,57,ARM C,3,ARM C,3,Y,Y,Y,Y,12DEC2006,18MAR2007,1,DAY 1,2006-12-12,12DEC2006,1,,Day 1 Baseline,0,"Area Score, Upper Extremities",ASUEX,1,,1,1,,,,,,,,,,Y,Y,,,,,,1
BBC,BBC-10-147,147,10,58,ARM C,3,ARM C,3,Y,Y,Y,Y,12DEC2006,18MAR2007,2,WEEK 2,2006-12-28,28DEC2006,17,,Week 2,2,"Area Score, Upper Extremities",ASUEX,1,,1,1,0,0,,8-22 DAYS,15,2,8,22,DAYS,,Y,,,,,1,1
BBC,BBC-10-147,147,10,59,ARM C,3,ARM C,3,Y,Y,Y,Y,12DEC2006,18MAR2007,4,WEEK 4,2007-01-15,15JAN2007,35,,Week 4,4,"Area Score, Upper Extremities",ASUEX,1,,1,1,0,0,,23-36 DAYS,29,6,23,36,DAYS,,Y,,,,,1,1
BBC,BBC-10-147,147,10,60,ARM C,3,ARM C,3,Y,Y,Y,Y,12DEC2006,18MAR2007,6,WEEK 6,2007-01-25,25JAN2007,45,,Week 6,6,"Area Score, Upper Extremities",ASUEX,1,,1,1,0,0,,37-50 DAYS,43,2,37,50,DAYS,,Y,,,,,1,1
BBC,BBC-10-147,147,10,61,ARM C,3,ARM C,3,Y,Y,Y,Y,12DEC2006,18MAR2007,8,WEEK 8,2007-02-12,12FEB2007,63,,Week 8,8,"Area Score, Upper Extremities",ASUEX,1,,1,1,0,0,,51-71 DAYS,57,6,51,71,DAYS,,Y,,,,,1,1
BBC,BBC-10-147,147,10,62,ARM C,3,ARM C,3,Y,Y,Y,Y,12DEC2006,18MAR2007,12,WEEK 12,2007-03-19,19MAR2007,98,,Week 12,12,"Area Score, Upper Extremities",ASUEX,1,,1,1,0,0,,72-99 DAYS,85,13,72,99,DAYS,,Y,,,,,1,1
BBC,BBC-10-147,147,10,35,ARM C,3,ARM C,3,Y,Y,Y,Y,12DEC2006,18MAR2007,16,WEEK 16,2007-04-02,02APR2007,112,,,,"Area Score, Trunk",ASTRUNK,2,,0,0,0,,,,,,,,,,,,,,,0,0
BBC,BBC-10-147,147,10,29,ARM C,3,ARM C,3,Y,Y,Y,Y,12DEC2006,18MAR2007,1,DAY 1,2006-12-12,12DEC2006,1,,Day 1 Baseline,0,"Area Score, Trunk",ASTRUNK,2,,0,0,,,,,,,,,,Y,Y,,,,,,0
BBC,BBC-10-147,147,10,30,ARM C,3,ARM C,3,Y,Y,Y,Y,12DEC2006,18MAR2007,2,WEEK 2,2006-12-28,28DEC2006,17,,Week 2,2,"Area Score, Trunk",ASTRUNK,2,,0,0,0,,,8-22 DAYS,15,2,8,22,DAYS,,Y,,,,,0,0
BBC,BBC-10-147,147,10,31,ARM C,3,ARM C,3,Y,Y,Y,Y,12DEC2006,18MAR2007,4,WEEK 4,2007-01-15,15JAN2007,35,,Week 4,4,"Area Score, Trunk",ASTRUNK,2,,0,0,0,,,23-36 DAYS,29,6,23,36,DAYS,,Y,,,,,0,0
BBC,BBC-10-147,147,10,32,ARM C,3,ARM C,3,Y,Y,Y,Y,12DEC2006,18MAR2007,6,WEEK 6,2007-01-25,25JAN2007,45,,Week 6,6,"Area Score, Trunk",ASTRUNK,2,,0,0,0,,,37-50 DAYS,43,2,37,50,DAYS,,Y,,,,,0,0
BBC,BBC-10-147,147,10,33,ARM C,3,ARM C,3,Y,Y,Y,Y,12DEC2006,18MAR2007,8,WEEK 8,2007-02-12,12FEB2007,63,,Week 8,8,"Area Score, Trunk",ASTRUNK,2,,0,0,0,,,51-71 DAYS,57,6,51,71,DAYS,,Y,,,,,0,0
BBC,BBC-10-147,147,10,34,ARM C,3,ARM C,3,Y,Y,Y,Y,12DEC2006,18MAR2007,12,WEEK 12,2007-03-19,19MAR2007,98,,Week 12,12,"Area Score, Trunk",ASTRUNK,2,,0,0,0,,,72-99 DAYS,85,13,72,99,DAYS,,Y,,,,,0,0
BBC,BBC-10-147,147,10,7,ARM C,3,ARM C,3,Y,Y,Y,Y,12DEC2006,18MAR2007,16,WEEK 16,2007-04-02,02APR2007,112,,,,"Area Score, Lower Extremities",ASLEX,3,,1,1,0,0,,,,,,,,,,,,,,1,1
BBC,BBC-10-147,147,10,1,ARM C,3,ARM C,3,Y,Y,Y,Y,12DEC2006,18MAR2007,1,DAY 1,2006-12-12,12DEC2006,1,,Day 1 Baseline,0,"Area Score, Lower Extremities",ASLEX,3,,1,1,,,,,,,,,,Y,Y,,,,,,1
BBC,BBC-10-147,147,10,2,ARM C,3,ARM C,3,Y,Y,Y,Y,12DEC2006,18MAR2007,2,WEEK 2,2006-12-28,28DEC2006,17,,Week 2,2,"Area Score, Lower Extremities",ASLEX,3,,1,1,0,0,,8-22 DAYS,15,2,8,22,DAYS,,Y,,,,,1,1
BBC,BBC-10-147,147,10,3,ARM C,3,ARM C,3,Y,Y,Y,Y,12DEC2006,18MAR2007,4,WEEK 4,2007-01-15,15JAN2007,35,,Week 4,4,"Area Score, Lower Extremities",ASLEX,3,,1,1,0,0,,23-36 DAYS,29,6,23,36,DAYS,,Y,,,,,1,1
BBC,BBC-10-147,147,10,4,ARM C,3,ARM C,3,Y,Y,Y,Y,12DEC2006,18MAR2007,6,WEEK 6,2007-01-25,25JAN2007,45,,Week 6,6,"Area Score, Lower Extremities",ASLEX,3,,1,1,0,0,,37-50 DAYS,43,2,37,50,DAYS,,Y,,,,,1,1
BBC,BBC-10-147,147,10,5,ARM C,3,ARM C,3,Y,Y,Y,Y,12DEC2006,18MAR2007,8,WEEK 8,2007-02-12,12FEB2007,63,,Week 8,8,"Area Score, Lower Extremities",ASLEX,3,,1,1,0,0,,51-71 DAYS,57,6,51,71,DAYS,,Y,,,,,1,1
BBC,BBC-10-147,147,10,6,ARM C,3,ARM C,3,Y,Y,Y,Y,12DEC2006,18MAR2007,12,WEEK 12,2007-03-19,19MAR2007,98,,Week 12,12,"Area Score, Lower Extremities",ASLEX,3,,1,1,0,0,,72-99 DAYS,85,13,72,99,DAYS,,Y,,,,,1,1
BBC,BBC-10-147,147,10,70,ARM C,3,ARM C,3,Y,Y,Y,Y,12DEC2006,18MAR2007,16,WEEK 16,2007-04-02,02APR2007,112,,,,"Erythema, Upper Extremities",ERUEX,4,,0,0,0,,,,,,,,,,,,,,,0,0
BBC,BBC-10-147,147,10,64,ARM C,3,ARM C,3,Y,Y,Y,Y,12DEC2006,18MAR2007,1,DAY 1,2006-12-12,12DEC2006,1,,Day 1 Baseline,0,"Erythema, Upper Extremities",ERUEX,4,,0,0,,,,,,,,,,Y,Y,,,,,,0
BBC,BBC-10-147,147,10,65,ARM C,3,ARM C,3,Y,Y,Y,Y,12DEC2006,18MAR2007,2,WEEK 2,2006-12-28,28DEC2006,17,,Week 2,2,"Erythema, Upper Extremities",ERUEX,4,,0,0,0,,,8-22 DAYS,15,2,8,22,DAYS,,Y,,,,,0,0
BBC,BBC-10-147,147,10,66,ARM C,3,ARM C,3,Y,Y,Y,Y,12DEC2006,18MAR2007,4,WEEK 4,2007-01-15,15JAN2007,35,,Week 4,4,"Erythema, Upper Extremities",ERUEX,4,,0,0,0,,,23-36 DAYS,29,6,23,36,DAYS,,Y,,,,,0,0
BBC,BBC-10-147,147,10,67,ARM C,3,ARM C,3,Y,Y,Y,Y,12DEC2006,18MAR2007,6,WEEK 6,2007-01-25,25JAN2007,45,,Week 6,6,"Erythema, Upper Extremities",ERUEX,4,,0,0,0,,,37-50 DAYS,43,2,37,50,DAYS,,Y,,,,,0,0
BBC,BBC-10-147,147,10,68,ARM C,3,ARM C,3,Y,Y,Y,Y,12DEC2006,18MAR2007,8,WEEK 8,2007-02-12,12FEB2007,63,,Week 8,8,"Erythema, Upper Extremities",ERUEX,4,,0,0,0,,,51-71 DAYS,57,6,51,71,DAYS,,Y,,,,,0,0
BBC,BBC-10-147,147,10,69,ARM C,3,ARM C,3,Y,Y,Y,Y,12DEC2006,18MAR2007,12,WEEK 12,2007-03-19,19MAR2007,98,,Week 12,12,"Erythema, Upper Extremities",ERUEX,4,,0,0,0,,,72-99 DAYS,85,13,72,99,DAYS,,Y,,,,,0,0
BBC,BBC-10-147,147,10,42,ARM C,3,ARM C,3,Y,Y,Y,Y,12DEC2006,18MAR2007,16,WEEK 16,2007-04-02,02APR2007,112,,,,"Erythema, Trunk",ERTRUNK,5,,0,0,0,,,,,,,,,,,,,,,0,0
BBC,BBC-10-147,147,10,36,ARM C,3,ARM C,3,Y,Y,Y,Y,12DEC2006,18MAR2007,1,DAY 1,2006-12-12,12DEC2006,1,,Day 1 Baseline,0,"Erythema, Trunk",ERTRUNK,5,,0,0,,,,,,,,,,Y,Y,,,,,,0
BBC,BBC-10-147,147,10,37,ARM C,3,ARM C,3,Y,Y,Y,Y,12DEC2006,18MAR2007,2,WEEK 2,2006-12-28,28DEC2006,17,,Week 2,2,"Erythema, Trunk",ERTRUNK,5,,0,0,0,,,8-22 DAYS,15,2,8,22,DAYS,,Y,,,,,0,0
BBC,BBC-10-147,147,10,38,ARM C,3,ARM C,3,Y,Y,Y,Y,12DEC2006,18MAR2007,4,WEEK 4,2007-01-15,15JAN2007,35,,Week 4,4,"Erythema, Trunk",ERTRUNK,5,,0,0,0,,,23-36 DAYS,29,6,23,36,DAYS,,Y,,,,,0,0
BBC,BBC-10-147,147,10,39,ARM C,3,ARM C,3,Y,Y,Y,Y,12DEC2006,18MAR2007,6,WEEK 6,2007-01-25,25JAN2007,45,,Week 6,6,"Erythema, Trunk",ERTRUNK,5,,0,0,0,,,37-50 DAYS,43,2,37,50,DAYS,,Y,,,,,0,0
BBC,BBC-10-147,147,10,40,ARM C,3,ARM C,3,Y,Y,Y,Y,12DEC2006,18MAR2007,8,WEEK 8,2007-02-12,12FEB2007,63,,Week 8,8,"Erythema, Trunk",ERTRUNK,5,,0,0,0,,,51-71 DAYS,57,6,51,71,DAYS,,Y,,,,,0,0
BBC,BBC-10-147,147,10,41,ARM C,3,ARM C,3,Y,Y,Y,Y,12DEC2006,18MAR2007,12,WEEK 12,2007-03-19,19MAR2007,98,,Week 12,12,"Erythema, Trunk",ERTRUNK,5,,0,0,0,,,72-99 DAYS,85,13,72,99,DAYS,,Y,,,,,0,0
BBC,BBC-10-147,147,10,14,ARM C,3,ARM C,3,Y,Y,Y,Y,12DEC2006,18MAR2007,16,WEEK 16,2007-04-02,02APR2007,112,,,,"Erythema, Lower Extremities",ERLEX,6,,0,2,-2,-100,,,,,,,,,,,,,,0,2
BBC,BBC-10-147,147,10,8,ARM C,3,ARM C,3,Y,Y,Y,Y,12DEC2006,18MAR2007,1,DAY 1,2006-12-12,12DEC2006,1,,Day 1 Baseline,0,"Erythema, Lower Extremities",ERLEX,6,,2,2,,,,,,,,,,Y,Y,,,,,,2
BBC,BBC-10-147,147,10,9,ARM C,3,ARM C,3,Y,Y,Y,Y,12DEC2006,18MAR2007,2,WEEK 2,2006-12-28,28DEC2006,17,,Week 2,2,"Erythema, Lower Extremities",ERLEX,6,,1,2,-1,-50,,8-22 DAYS,15,2,8,22,DAYS,,Y,,,,,1,2
BBC,BBC-10-147,147,10,10,ARM C,3,ARM C,3,Y,Y,Y,Y,12DEC2006,18MAR2007,4,WEEK 4,2007-01-15,15JAN2007,35,,Week 4,4,"Erythema, Lower Extremities",ERLEX,6,,1,2,-1,-50,,23-36 DAYS,29,6,23,36,DAYS,,Y,,,,,1,2
BBC,BBC-10-147,147,10,11,ARM C,3,ARM C,3,Y,Y,Y,Y,12DEC2006,18MAR2007,6,WEEK 6,2007-01-25,25JAN2007,45,,Week 6,6,"Erythema, Lower Extremities",ERLEX,6,,0,2,-2,-100,,37-50 DAYS,43,2,37,50,DAYS,,Y,,,,,0,2
BBC,BBC-10-147,147,10,12,ARM C,3,ARM C,3,Y,Y,Y,Y,12DEC2006,18MAR2007,8,WEEK 8,2007-02-12,12FEB2007,63,,Week 8,8,"Erythema, Lower Extremities",ERLEX,6,,0,2,-2,-100,,51-71 DAYS,57,6,51,71,DAYS,,Y,,,,,0,2
BBC,BBC-10-147,147,10,13,ARM C,3,ARM C,3,Y,Y,Y,Y,12DEC2006,18MAR2007,12,WEEK 12,2007-03-19,19MAR2007,98,,Week 12,12,"Erythema, Lower Extremities",ERLEX,6,,0,2,-2,-100,,72-99 DAYS,85,13,72,99,DAYS,,Y,,,,,0,2
BBC,BBC-10-147,147,10,84,ARM C,3,ARM C,3,Y,Y,Y,Y,12DEC2006,18MAR2007,16,WEEK 16,2007-04-02,02APR2007,112,,,,"Thickness, Upper Extremities",THKUEX,7,,0,2,-2,-100,,,,,,,,,,,,,,0,2
BBC,BBC-10-147,147,10,78,ARM C,3,ARM C,3,Y,Y,Y,Y,12DEC2006,18MAR2007,1,DAY 1,2006-12-12,12DEC2006,1,,Day 1 Baseline,0,"Thickness, Upper Extremities",THKUEX,7,,2,2,,,,,,,,,,Y,Y,,,,,,2
BBC,BBC-10-147,147,10,79,ARM C,3,ARM C,3,Y,Y,Y,Y,12DEC2006,18MAR2007,2,WEEK 2,2006-12-28,28DEC2006,17,,Week 2,2,"Thickness, Upper Extremities",THKUEX,7,,2,2,0,0,,8-22 DAYS,15,2,8,22,DAYS,,Y,,,,,2,2
BBC,BBC-10-147,147,10,80,ARM C,3,ARM C,3,Y,Y,Y,Y,12DEC2006,18MAR2007,4,WEEK 4,2007-01-15,15JAN2007,35,,Week 4,4,"Thickness, Upper Extremities",THKUEX,7,,2,2,0,0,,23-36 DAYS,29,6,23,36,DAYS,,Y,,,,,2,2
BBC,BBC-10-147,147,10,81,ARM C,3,ARM C,3,Y,Y,Y,Y,12DEC2006,18MAR2007,6,WEEK 6,2007-01-25,25JAN2007,45,,Week 6,6,"Thickness, Upper Extremities",THKUEX,7,,1,2,-1,-50,,37-50 DAYS,43,2,37,50,DAYS,,Y,,,,,1,2
BBC,BBC-10-147,147,10,82,ARM C,3,ARM C,3,Y,Y,Y,Y,12DEC2006,18MAR2007,8,WEEK 8,2007-02-12,12FEB2007,63,,Week 8,8,"Thickness, Upper Extremities",THKUEX,7,,0,2,-2,-100,,51-71 DAYS,57,6,51,71,DAYS,,Y,,,,,0,2
BBC,BBC-10-147,147,10,83,ARM C,3,ARM C,3,Y,Y,Y,Y,12DEC2006,18MAR2007,12,WEEK 12,2007-03-19,19MAR2007,98,,Week 12,12,"Thickness, Upper Extremities",THKUEX,7,,0,2,-2,-100,,72-99 DAYS,85,13,72,99,DAYS,,Y,,,,,0,2
BBC,BBC-10-147,147,10,56,ARM C,3,ARM C,3,Y,Y,Y,Y,12DEC2006,18MAR2007,16,WEEK 16,2007-04-02,02APR2007,112,,,,"Thickness, Trunk",THKTRUNK,8,,0,0,0,,,,,,,,,,,,,,,0,0
BBC,BBC-10-147,147,10,50,ARM C,3,ARM C,3,Y,Y,Y,Y,12DEC2006,18MAR2007,1,DAY 1,2006-12-12,12DEC2006,1,,Day 1 Baseline,0,"Thickness, Trunk",THKTRUNK,8,,0,0,,,,,,,,,,Y,Y,,,,,,0
BBC,BBC-10-147,147,10,51,ARM C,3,ARM C,3,Y,Y,Y,Y,12DEC2006,18MAR2007,2,WEEK 2,2006-12-28,28DEC2006,17,,Week 2,2,"Thickness, Trunk",THKTRUNK,8,,0,0,0,,,8-22 DAYS,15,2,8,22,DAYS,,Y,,,,,0,0
BBC,BBC-10-147,147,10,52,ARM C,3,ARM C,3,Y,Y,Y,Y,12DEC2006,18MAR2007,4,WEEK 4,2007-01-15,15JAN2007,35,,Week 4,4,"Thickness, Trunk",THKTRUNK,8,,0,0,0,,,23-36 DAYS,29,6,23,36,DAYS,,Y,,,,,0,0
BBC,BBC-10-147,147,10,53,ARM C,3,ARM C,3,Y,Y,Y,Y,12DEC2006,18MAR2007,6,WEEK 6,2007-01-25,25JAN2007,45,,Week 6,6,"Thickness, Trunk",THKTRUNK,8,,0,0,0,,,37-50 DAYS,43,2,37,50,DAYS,,Y,,,,,0,0
BBC,BBC-10-147,147,10,54,ARM C,3,ARM C,3,Y,Y,Y,Y,12DEC2006,18MAR2007,8,WEEK 8,2007-02-12,12FEB2007,63,,Week 8,8,"Thickness, Trunk",THKTRUNK,8,,0,0,0,,,51-71 DAYS,57,6,51,71,DAYS,,Y,,,,,0,0
BBC,BBC-10-147,147,10,55,ARM C,3,ARM C,3,Y,Y,Y,Y,12DEC2006,18MAR2007,12,WEEK 12,2007-03-19,19MAR2007,98,,Week 12,12,"Thickness, Trunk",THKTRUNK,8,,0,0,0,,,72-99 DAYS,85,13,72,99,DAYS,,Y,,,,,0,0
BBC,BBC-10-147,147,10,28,ARM C,3,ARM C,3,Y,Y,Y,Y,12DEC2006,18MAR2007,16,WEEK 16,2007-04-02,02APR2007,112,,,,"Thickness, Lower Extremities",THKLEX,9,,1,2,-1,-50,,,,,,,,,,,,,,1,2
BBC,BBC-10-147,147,10,22,ARM C,3,ARM C,3,Y,Y,Y,Y,12DEC2006,18MAR2007,1,DAY 1,2006-12-12,12DEC2006,1,,Day 1 Baseline,0,"Thickness, Lower Extremities",THKLEX,9,,2,2,,,,,,,,,,Y,Y,,,,,,2
BBC,BBC-10-147,147,10,23,ARM C,3,ARM C,3,Y,Y,Y,Y,12DEC2006,18MAR2007,2,WEEK 2,2006-12-28,28DEC2006,17,,Week 2,2,"Thickness, Lower Extremities",THKLEX,9,,2,2,0,0,,8-22 DAYS,15,2,8,22,DAYS,,Y,,,,,2,2
BBC,BBC-10-147,147,10,24,ARM C,3,ARM C,3,Y,Y,Y,Y,12DEC2006,18MAR2007,4,WEEK 4,2007-01-15,15JAN2007,35,,Week 4,4,"Thickness, Lower Extremities",THKLEX,9,,2,2,0,0,,23-36 DAYS,29,6,23,36,DAYS,,Y,,,,,2,2
BBC,BBC-10-147,147,10,25,ARM C,3,ARM C,3,Y,Y,Y,Y,12DEC2006,18MAR2007,6,WEEK 6,2007-01-25,25JAN2007,45,,Week 6,6,"Thickness, Lower Extremities",THKLEX,9,,1,2,-1,-50,,37-50 DAYS,43,2,37,50,DAYS,,Y,,,,,1,2
BBC,BBC-10-147,147,10,26,ARM C,3,ARM C,3,Y,Y,Y,Y,12DEC2006,18MAR2007,8,WEEK 8,2007-02-12,12FEB2007,63,,Week 8,8,"Thickness, Lower Extremities",THKLEX,9,,0,2,-2,-100,,51-71 DAYS,57,6,51,71,DAYS,,Y,,,,,0,2
BBC,BBC-10-147,147,10,27,ARM C,3,ARM C,3,Y,Y,Y,Y,12DEC2006,18MAR2007,12,WEEK 12,2007-03-19,19MAR2007,98,,Week 12,12,"Thickness, Lower Extremities",THKLEX,9,,0,2,-2,-100,,72-99 DAYS,85,13,72,99,DAYS,,Y,,,,,0,2
BBC,BBC-10-147,147,10,77,ARM C,3,ARM C,3,Y,Y,Y,Y,12DEC2006,18MAR2007,16,WEEK 16,2007-04-02,02APR2007,112,,,,"Scale, Upper Extremities",SCUEX,10,,0,1,-1,-100,,,,,,,,,,,,,,0,1
BBC,BBC-10-147,147,10,71,ARM C,3,ARM C,3,Y,Y,Y,Y,12DEC2006,18MAR2007,1,DAY 1,2006-12-12,12DEC2006,1,,Day 1 Baseline,0,"Scale, Upper Extremities",SCUEX,10,,1,1,,,,,,,,,,Y,Y,,,,,,1
BBC,BBC-10-147,147,10,72,ARM C,3,ARM C,3,Y,Y,Y,Y,12DEC2006,18MAR2007,2,WEEK 2,2006-12-28,28DEC2006,17,,Week 2,2,"Scale, Upper Extremities",SCUEX,10,,1,1,0,0,,8-22 DAYS,15,2,8,22,DAYS,,Y,,,,,1,1
BBC,BBC-10-147,147,10,73,ARM C,3,ARM C,3,Y,Y,Y,Y,12DEC2006,18MAR2007,4,WEEK 4,2007-01-15,15JAN2007,35,,Week 4,4,"Scale, Upper Extremities",SCUEX,10,,2,1,1,100,,23-36 DAYS,29,6,23,36,DAYS,,Y,,,,,2,1
BBC,BBC-10-147,147,10,74,ARM C,3,ARM C,3,Y,Y,Y,Y,12DEC2006,18MAR2007,6,WEEK 6,2007-01-25,25JAN2007,45,,Week 6,6,"Scale, Upper Extremities",SCUEX,10,,2,1,1,100,,37-50 DAYS,43,2,37,50,DAYS,,Y,,,,,2,1
BBC,BBC-10-147,147,10,75,ARM C,3,ARM C,3,Y,Y,Y,Y,12DEC2006,18MAR2007,8,WEEK 8,2007-02-12,12FEB2007,63,,Week 8,8,"Scale, Upper Extremities",SCUEX,10,,1,1,0,0,,51-71 DAYS,57,6,51,71,DAYS,,Y,,,,,1,1
BBC,BBC-10-147,147,10,76,ARM C,3,ARM C,3,Y,Y,Y,Y,12DEC2006,18MAR2007,12,WEEK 12,2007-03-19,19MAR2007,98,,Week 12,12,"Scale, Upper Extremities",SCUEX,10,,0,1,-1,-100,,72-99 DAYS,85,13,72,99,DAYS,,Y,,,,,0,1
BBC,BBC-10-147,147,10,49,ARM C,3,ARM C,3,Y,Y,Y,Y,12DEC2006,18MAR2007,16,WEEK 16,2007-04-02,02APR2007,112,,,,"Scale, Trunk",SCTRUNK,11,,0,0,0,,,,,,,,,,,,,,,0,0
BBC,BBC-10-147,147,10,43,ARM C,3,ARM C,3,Y,Y,Y,Y,12DEC2006,18MAR2007,1,DAY 1,2006-12-12,12DEC2006,1,,Day 1 Baseline,0,"Scale, Trunk",SCTRUNK,11,,0,0,,,,,,,,,,Y,Y,,,,,,0
BBC,BBC-10-147,147,10,44,ARM C,3,ARM C,3,Y,Y,Y,Y,12DEC2006,18MAR2007,2,WEEK 2,2006-12-28,28DEC2006,17,,Week 2,2,"Scale, Trunk",SCTRUNK,11,,0,0,0,,,8-22 DAYS,15,2,8,22,DAYS,,Y,,,,,0,0
BBC,BBC-10-147,147,10,45,ARM C,3,ARM C,3,Y,Y,Y,Y,12DEC2006,18MAR2007,4,WEEK 4,2007-01-15,15JAN2007,35,,Week 4,4,"Scale, Trunk",SCTRUNK,11,,0,0,0,,,23-36 DAYS,29,6,23,36,DAYS,,Y,,,,,0,0
BBC,BBC-10-147,147,10,46,ARM C,3,ARM C,3,Y,Y,Y,Y,12DEC2006,18MAR2007,6,WEEK 6,2007-01-25,25JAN2007,45,,Week 6,6,"Scale, Trunk",SCTRUNK,11,,0,0,0,,,37-50 DAYS,43,2,37,50,DAYS,,Y,,,,,0,0
BBC,BBC-10-147,147,10,47,ARM C,3,ARM C,3,Y,Y,Y,Y,12DEC2006,18MAR2007,8,WEEK 8,2007-02-12,12FEB2007,63,,Week 8,8,"Scale, Trunk",SCTRUNK,11,,0,0,0,,,51-71 DAYS,57,6,51,71,DAYS,,Y,,,,,0,0
BBC,BBC-10-147,147,10,48,ARM C,3,ARM C,3,Y,Y,Y,Y,12DEC2006,18MAR2007,12,WEEK 12,2007-03-19,19MAR2007,98,,Week 12,12,"Scale, Trunk",SCTRUNK,11,,0,0,0,,,72-99 DAYS,85,13,72,99,DAYS,,Y,,,,,0,0
BBC,BBC-10-147,147,10,21,ARM C,3,ARM C,3,Y,Y,Y,Y,12DEC2006,18MAR2007,16,WEEK 16,2007-04-02,02APR2007,112,,,,"Scale, Lower Extremities",SCLEX,12,,2,2,0,0,,,,,,,,,,,,,,2,2
BBC,BBC-10-147,147,10,15,ARM C,3,ARM C,3,Y,Y,Y,Y,12DEC2006,18MAR2007,1,DAY 1,2006-12-12,12DEC2006,1,,Day 1 Baseline,0,"Scale, Lower Extremities",SCLEX,12,,2,2,,,,,,,,,,Y,Y,,,,,,2
BBC,BBC-10-147,147,10,16,ARM C,3,ARM C,3,Y,Y,Y,Y,12DEC2006,18MAR2007,2,WEEK 2,2006-12-28,28DEC2006,17,,Week 2,2,"Scale, Lower Extremities",SCLEX,12,,2,2,0,0,,8-22 DAYS,15,2,8,22,DAYS,,Y,,,,,2,2
BBC,BBC-10-147,147,10,17,ARM C,3,ARM C,3,Y,Y,Y,Y,12DEC2006,18MAR2007,4,WEEK 4,2007-01-15,15JAN2007,35,,Week 4,4,"Scale, Lower Extremities",SCLEX,12,,2,2,0,0,,23-36 DAYS,29,6,23,36,DAYS,,Y,,,,,2,2
BBC,BBC-10-147,147,10,18,ARM C,3,ARM C,3,Y,Y,Y,Y,12DEC2006,18MAR2007,6,WEEK 6,2007-01-25,25JAN2007,45,,Week 6,6,"Scale, Lower Extremities",SCLEX,12,,1,2,-1,-50,,37-50 DAYS,43,2,37,50,DAYS,,Y,,,,,1,2
BBC,BBC-10-147,147,10,19,ARM C,3,ARM C,3,Y,Y,Y,Y,12DEC2006,18MAR2007,8,WEEK 8,2007-02-12,12FEB2007,63,,Week 8,8,"Scale, Lower Extremities",SCLEX,12,,1,2,-1,-50,,51-71 DAYS,57,6,51,71,DAYS,,Y,,,,,1,2
BBC,BBC-10-147,147,10,20,ARM C,3,ARM C,3,Y,Y,Y,Y,12DEC2006,18MAR2007,12,WEEK 12,2007-03-19,19MAR2007,98,,Week 12,12,"Scale, Lower Extremities",SCLEX,12,,1,2,-1,-50,,72-99 DAYS,85,13,72,99,DAYS,,Y,,,,,1,2
BBC,BBC-10-147,147,10,84,ARM C,3,ARM C,3,Y,Y,Y,Y,12DEC2006,18MAR2007,16,WEEK 16,2007-04-02,02APR2007,112,,,,Area Adjusted Psoriasis Area and Severity Index,PASISCOR,13,DERIVED,1.3,3.3,-2,-60.6,,,,,,,,,,,,Improvement in AAPASI score from baseline of at least 50%,Y,1.3,3.3
BBC,BBC-10-147,147,10,78,ARM C,3,ARM C,3,Y,Y,Y,Y,12DEC2006,18MAR2007,1,DAY 1,2006-12-12,12DEC2006,1,,Day 1 Baseline,0,Area Adjusted Psoriasis Area and Severity Index,PASISCOR,13,DERIVED,3.3,3.3,,,,,,,,,,Y,Y,,,,,,3.3
BBC,BBC-10-147,147,10,79,ARM C,3,ARM C,3,Y,Y,Y,Y,12DEC2006,18MAR2007,2,WEEK 2,2006-12-28,28DEC2006,17,,Week 2,2,Area Adjusted Psoriasis Area and Severity Index,PASISCOR,13,DERIVED,2.8,3.3,-0.5,-15.2,,8-22 DAYS,15,2,8,22,DAYS,,Y,,,,,2.8,3.3
BBC,BBC-10-147,147,10,80,ARM C,3,ARM C,3,Y,Y,Y,Y,12DEC2006,18MAR2007,4,WEEK 4,2007-01-15,15JAN2007,35,,Week 4,4,Area Adjusted Psoriasis Area and Severity Index,PASISCOR,13,DERIVED,3,3.3,-0.3,-9.1,,23-36 DAYS,29,6,23,36,DAYS,,Y,,,,,3,3.3
BBC,BBC-10-147,147,10,81,ARM C,3,ARM C,3,Y,Y,Y,Y,12DEC2006,18MAR2007,6,WEEK 6,2007-01-25,25JAN2007,45,,Week 6,6,Area Adjusted Psoriasis Area and Severity Index,PASISCOR,13,DERIVED,1.5,3.3,-1.8,-54.5,,37-50 DAYS,43,2,37,50,DAYS,,Y,,,Improvement in AAPASI score from baseline of at least 50%,Y,1.5,3.3
BBC,BBC-10-147,147,10,82,ARM C,3,ARM C,3,Y,Y,Y,Y,12DEC2006,18MAR2007,8,WEEK 8,2007-02-12,12FEB2007,63,,Week 8,8,Area Adjusted Psoriasis Area and Severity Index,PASISCOR,13,DERIVED,0.7,3.3,-2.6,-78.8,,51-71 DAYS,57,6,51,71,DAYS,,Y,Improvement in AAPASI score from baseline of at least 75%,Y,Improvement in AAPASI score from baseline of at least 50%,Y,0.7,3.3
BBC,BBC-10-147,147,10,83,ARM C,3,ARM C,3,Y,Y,Y,Y,12DEC2006,18MAR2007,12,WEEK 12,2007-03-19,19MAR2007,98,,Week 12,12,Area Adjusted Psoriasis Area and Severity Index,PASISCOR,13,DERIVED,0.4,3.3,-2.9,-87.9,,72-99 DAYS,85,13,72,99,DAYS,,Y,Improvement in AAPASI score from baseline of at least 75%,Y,Improvement in AAPASI score from baseline of at least 50%,Y,0.4,3.3
BBC,BBC-10-148,148,10,57,ARM B,2,ARM B,2,Y,Y,Y,Y,12DEC2006,07MAR2007,1,DAY 1,2006-12-12,12DEC2006,1,,Day 1 Baseline,0,"Area Score, Upper Extremities",ASUEX,1,,1,1,,,,,,,,,,Y,Y,,,,,,1
BBC,BBC-10-148,148,10,58,ARM B,2,ARM B,2,Y,Y,Y,Y,12DEC2006,07MAR2007,2,WEEK 2,2006-12-28,28DEC2006,17,,Week 2,2,"Area Score, Upper Extremities",ASUEX,1,,1,1,0,0,,8-22 DAYS,15,2,8,22,DAYS,,Y,,,,,1,1
BBC,BBC-10-148,148,10,59,ARM B,2,ARM B,2,Y,Y,Y,Y,12DEC2006,07MAR2007,4,WEEK 4,2007-01-11,11JAN2007,31,,Week 4,4,"Area Score, Upper Extremities",ASUEX,1,,1,1,0,0,,23-36 DAYS,29,2,23,36,DAYS,,Y,,,,,1,1
BBC,BBC-10-148,148,10,60,ARM B,2,ARM B,2,Y,Y,Y,Y,12DEC2006,07MAR2007,6,WEEK 6,2007-01-25,25JAN2007,45,,Week 6,6,"Area Score, Upper Extremities",ASUEX,1,,1,1,0,0,,37-50 DAYS,43,2,37,50,DAYS,,Y,,,,,1,1
BBC,BBC-10-148,148,10,61,ARM B,2,ARM B,2,Y,Y,Y,Y,12DEC2006,07MAR2007,8,WEEK 8,2007-02-08,08FEB2007,59,,Week 8,8,"Area Score, Upper Extremities",ASUEX,1,,1,1,0,0,,51-71 DAYS,57,2,51,71,DAYS,,Y,,,,,1,1
BBC,BBC-10-148,148,10,62,ARM B,2,ARM B,2,Y,Y,Y,Y,12DEC2006,07MAR2007,12,WEEK 12,2007-03-15,15MAR2007,94,,Week 12,12,"Area Score, Upper Extremities",ASUEX,1,,1,1,0,0,,72-99 DAYS,85,9,72,99,DAYS,,,,,,,1,1
BBC,BBC-10-148,148,10,63,ARM B,2,ARM B,2,Y,Y,Y,Y,12DEC2006,07MAR2007,16,WEEK 16,2007-04-03,03APR2007,113,,Week 16,16,"Area Score, Upper Extremities",ASUEX,1,,1,1,0,0,,22-36 DAYS POST-LAST-DOSE,114,1,107,121,DAYS,,,,,,,1,1
BBC,BBC-10-148,148,10,29,ARM B,2,ARM B,2,Y,Y,Y,Y,12DEC2006,07MAR2007,1,DAY 1,2006-12-12,12DEC2006,1,,Day 1 Baseline,0,"Area Score, Trunk",ASTRUNK,2,,0,0,,,,,,,,,,Y,Y,,,,,,0
BBC,BBC-10-148,148,10,30,ARM B,2,ARM B,2,Y,Y,Y,Y,12DEC2006,07MAR2007,2,WEEK 2,2006-12-28,28DEC2006,17,,Week 2,2,"Area Score, Trunk",ASTRUNK,2,,0,0,0,,,8-22 DAYS,15,2,8,22,DAYS,,Y,,,,,0,0
BBC,BBC-10-148,148,10,31,ARM B,2,ARM B,2,Y,Y,Y,Y,12DEC2006,07MAR2007,4,WEEK 4,2007-01-11,11JAN2007,31,,Week 4,4,"Area Score, Trunk",ASTRUNK,2,,0,0,0,,,23-36 DAYS,29,2,23,36,DAYS,,Y,,,,,0,0
BBC,BBC-10-148,148,10,32,ARM B,2,ARM B,2,Y,Y,Y,Y,12DEC2006,07MAR2007,6,WEEK 6,2007-01-25,25JAN2007,45,,Week 6,6,"Area Score, Trunk",ASTRUNK,2,,0,0,0,,,37-50 DAYS,43,2,37,50,DAYS,,Y,,,,,0,0
BBC,BBC-10-148,148,10,33,ARM B,2,ARM B,2,Y,Y,Y,Y,12DEC2006,07MAR2007,8,WEEK 8,2007-02-08,08FEB2007,59,,Week 8,8,"Area Score, Trunk",ASTRUNK,2,,0,0,0,,,51-71 DAYS,57,2,51,71,DAYS,,Y,,,,,0,0
BBC,BBC-10-148,148,10,34,ARM B,2,ARM B,2,Y,Y,Y,Y,12DEC2006,07MAR2007,12,WEEK 12,2007-03-15,15MAR2007,94,,Week 12,12,"Area Score, Trunk",ASTRUNK,2,,0,0,0,,,72-99 DAYS,85,9,72,99,DAYS,,,,,,,0,0
BBC,BBC-10-148,148,10,35,ARM B,2,ARM B,2,Y,Y,Y,Y,12DEC2006,07MAR2007,16,WEEK 16,2007-04-03,03APR2007,113,,Week 16,16,"Area Score, Trunk",ASTRUNK,2,,0,0,0,,,22-36 DAYS POST-LAST-DOSE,114,1,107,121,DAYS,,,,,,,0,0
BBC,BBC-10-148,148,10,1,ARM B,2,ARM B,2,Y,Y,Y,Y,12DEC2006,07MAR2007,1,DAY 1,2006-12-12,12DEC2006,1,,Day 1 Baseline,0,"Area Score, Lower Extremities",ASLEX,3,,1,1,,,,,,,,,,Y,Y,,,,,,1
BBC,BBC-10-148,148,10,2,ARM B,2,ARM B,2,Y,Y,Y,Y,12DEC2006,07MAR2007,2,WEEK 2,2006-12-28,28DEC2006,17,,Week 2,2,"Area Score, Lower Extremities",ASLEX,3,,1,1,0,0,,8-22 DAYS,15,2,8,22,DAYS,,Y,,,,,1,1
BBC,BBC-10-148,148,10,3,ARM B,2,ARM B,2,Y,Y,Y,Y,12DEC2006,07MAR2007,4,WEEK 4,2007-01-11,11JAN2007,31,,Week 4,4,"Area Score, Lower Extremities",ASLEX,3,,1,1,0,0,,23-36 DAYS,29,2,23,36,DAYS,,Y,,,,,1,1
BBC,BBC-10-148,148,10,4,ARM B,2,ARM B,2,Y,Y,Y,Y,12DEC2006,07MAR2007,6,WEEK 6,2007-01-25,25JAN2007,45,,Week 6,6,"Area Score, Lower Extremities",ASLEX,3,,1,1,0,0,,37-50 DAYS,43,2,37,50,DAYS,,Y,,,,,1,1
BBC,BBC-10-148,148,10,5,ARM B,2,ARM B,2,Y,Y,Y,Y,12DEC2006,07MAR2007,8,WEEK 8,2007-02-08,08FEB2007,59,,Week 8,8,"Area Score, Lower Extremities",ASLEX,3,,1,1,0,0,,51-71 DAYS,57,2,51,71,DAYS,,Y,,,,,1,1
BBC,BBC-10-148,148,10,6,ARM B,2,ARM B,2,Y,Y,Y,Y,12DEC2006,07MAR2007,12,WEEK 12,2007-03-15,15MAR2007,94,,Week 12,12,"Area Score, Lower Extremities",ASLEX,3,,1,1,0,0,,72-99 DAYS,85,9,72,99,DAYS,,,,,,,1,1
BBC,BBC-10-148,148,10,7,ARM B,2,ARM B,2,Y,Y,Y,Y,12DEC2006,07MAR2007,16,WEEK 16,2007-04-03,03APR2007,113,,Week 16,16,"Area Score, Lower Extremities",ASLEX,3,,1,1,0,0,,22-36 DAYS POST-LAST-DOSE,114,1,107,121,DAYS,,,,,,,1,1
BBC,BBC-10-148,148,10,64,ARM B,2,ARM B,2,Y,Y,Y,Y,12DEC2006,07MAR2007,1,DAY 1,2006-12-12,12DEC2006,1,,Day 1 Baseline,0,"Erythema, Upper Extremities",ERUEX,4,,2,2,,,,,,,,,,Y,Y,,,,,,2
BBC,BBC-10-148,148,10,65,ARM B,2,ARM B,2,Y,Y,Y,Y,12DEC2006,07MAR2007,2,WEEK 2,2006-12-28,28DEC2006,17,,Week 2,2,"Erythema, Upper Extremities",ERUEX,4,,2,2,0,0,,8-22 DAYS,15,2,8,22,DAYS,,Y,,,,,2,2
BBC,BBC-10-148,148,10,66,ARM B,2,ARM B,2,Y,Y,Y,Y,12DEC2006,07MAR2007,4,WEEK 4,2007-01-11,11JAN2007,31,,Week 4,4,"Erythema, Upper Extremities",ERUEX,4,,1,2,-1,-50,,23-36 DAYS,29,2,23,36,DAYS,,Y,,,,,1,2
BBC,BBC-10-148,148,10,67,ARM B,2,ARM B,2,Y,Y,Y,Y,12DEC2006,07MAR2007,6,WEEK 6,2007-01-25,25JAN2007,45,,Week 6,6,"Erythema, Upper Extremities",ERUEX,4,,1,2,-1,-50,,37-50 DAYS,43,2,37,50,DAYS,,Y,,,,,1,2
BBC,BBC-10-148,148,10,68,ARM B,2,ARM B,2,Y,Y,Y,Y,12DEC2006,07MAR2007,8,WEEK 8,2007-02-08,08FEB2007,59,,Week 8,8,"Erythema, Upper Extremities",ERUEX,4,,1,2,-1,-50,,51-71 DAYS,57,2,51,71,DAYS,,Y,,,,,1,2
BBC,BBC-10-148,148,10,69,ARM B,2,ARM B,2,Y,Y,Y,Y,12DEC2006,07MAR2007,12,WEEK 12,2007-03-15,15MAR2007,94,,Week 12,12,"Erythema, Upper Extremities",ERUEX,4,,2,2,0,0,,72-99 DAYS,85,9,72,99,DAYS,,,,,,,2,2
BBC,BBC-10-148,148,10,70,ARM B,2,ARM B,2,Y,Y,Y,Y,12DEC2006,07MAR2007,16,WEEK 16,2007-04-03,03APR2007,113,,Week 16,16,"Erythema, Upper Extremities",ERUEX,4,,2,2,0,0,,22-36 DAYS POST-LAST-DOSE,114,1,107,121,DAYS,,,,,,,2,2
BBC,BBC-10-148,148,10,36,ARM B,2,ARM B,2,Y,Y,Y,Y,12DEC2006,07MAR2007,1,DAY 1,2006-12-12,12DEC2006,1,,Day 1 Baseline,0,"Erythema, Trunk",ERTRUNK,5,,0,0,,,,,,,,,,Y,Y,,,,,,0
BBC,BBC-10-148,148,10,37,ARM B,2,ARM B,2,Y,Y,Y,Y,12DEC2006,07MAR2007,2,WEEK 2,2006-12-28,28DEC2006,17,,Week 2,2,"Erythema, Trunk",ERTRUNK,5,,0,0,0,,,8-22 DAYS,15,2,8,22,DAYS,,Y,,,,,0,0
BBC,BBC-10-148,148,10,38,ARM B,2,ARM B,2,Y,Y,Y,Y,12DEC2006,07MAR2007,4,WEEK 4,2007-01-11,11JAN2007,31,,Week 4,4,"Erythema, Trunk",ERTRUNK,5,,0,0,0,,,23-36 DAYS,29,2,23,36,DAYS,,Y,,,,,0,0
BBC,BBC-10-148,148,10,39,ARM B,2,ARM B,2,Y,Y,Y,Y,12DEC2006,07MAR2007,6,WEEK 6,2007-01-25,25JAN2007,45,,Week 6,6,"Erythema, Trunk",ERTRUNK,5,,0,0,0,,,37-50 DAYS,43,2,37,50,DAYS,,Y,,,,,0,0
BBC,BBC-10-148,148,10,40,ARM B,2,ARM B,2,Y,Y,Y,Y,12DEC2006,07MAR2007,8,WEEK 8,2007-02-08,08FEB2007,59,,Week 8,8,"Erythema, Trunk",ERTRUNK,5,,0,0,0,,,51-71 DAYS,57,2,51,71,DAYS,,Y,,,,,0,0
BBC,BBC-10-148,148,10,41,ARM B,2,ARM B,2,Y,Y,Y,Y,12DEC2006,07MAR2007,12,WEEK 12,2007-03-15,15MAR2007,94,,Week 12,12,"Erythema, Trunk",ERTRUNK,5,,0,0,0,,,72-99 DAYS,85,9,72,99,DAYS,,,,,,,0,0
BBC,BBC-10-148,148,10,42,ARM B,2,ARM B,2,Y,Y,Y,Y,12DEC2006,07MAR2007,16,WEEK 16,2007-04-03,03APR2007,113,,Week 16,16,"Erythema, Trunk",ERTRUNK,5,,0,0,0,,,22-36 DAYS POST-LAST-DOSE,114,1,107,121,DAYS,,,,,,,0,0
BBC,BBC-10-148,148,10,8,ARM B,2,ARM B,2,Y,Y,Y,Y,12DEC2006,07MAR2007,1,DAY 1,2006-12-12,12DEC2006,1,,Day 1 Baseline,0,"Erythema, Lower Extremities",ERLEX,6,,2,2,,,,,,,,,,Y,Y,,,,,,2
BBC,BBC-10-148,148,10,9,ARM B,2,ARM B,2,Y,Y,Y,Y,12DEC2006,07MAR2007,2,WEEK 2,2006-12-28,28DEC2006,17,,Week 2,2,"Erythema, Lower Extremities",ERLEX,6,,2,2,0,0,,8-22 DAYS,15,2,8,22,DAYS,,Y,,,,,2,2
BBC,BBC-10-148,148,10,10,ARM B,2,ARM B,2,Y,Y,Y,Y,12DEC2006,07MAR2007,4,WEEK 4,2007-01-11,11JAN2007,31,,Week 4,4,"Erythema, Lower Extremities",ERLEX,6,,2,2,0,0,,23-36 DAYS,29,2,23,36,DAYS,,Y,,,,,2,2
BBC,BBC-10-148,148,10,11,ARM B,2,ARM B,2,Y,Y,Y,Y,12DEC2006,07MAR2007,6,WEEK 6,2007-01-25,25JAN2007,45,,Week 6,6,"Erythema, Lower Extremities",ERLEX,6,,1,2,-1,-50,,37-50 DAYS,43,2,37,50,DAYS,,Y,,,,,1,2
BBC,BBC-10-148,148,10,12,ARM B,2,ARM B,2,Y,Y,Y,Y,12DEC2006,07MAR2007,8,WEEK 8,2007-02-08,08FEB2007,59,,Week 8,8,"Erythema, Lower Extremities",ERLEX,6,,2,2,0,0,,51-71 DAYS,57,2,51,71,DAYS,,Y,,,,,2,2
BBC,BBC-10-148,148,10,13,ARM B,2,ARM B,2,Y,Y,Y,Y,12DEC2006,07MAR2007,12,WEEK 12,2007-03-15,15MAR2007,94,,Week 12,12,"Erythema, Lower Extremities",ERLEX,6,,2,2,0,0,,72-99 DAYS,85,9,72,99,DAYS,,,,,,,2,2
BBC,BBC-10-148,148,10,14,ARM B,2,ARM B,2,Y,Y,Y,Y,12DEC2006,07MAR2007,16,WEEK 16,2007-04-03,03APR2007,113,,Week 16,16,"Erythema, Lower Extremities",ERLEX,6,,1,2,-1,-50,,22-36 DAYS POST-LAST-DOSE,114,1,107,121,DAYS,,,,,,,1,2
BBC,BBC-10-148,148,10,78,ARM B,2,ARM B,2,Y,Y,Y,Y,12DEC2006,07MAR2007,1,DAY 1,2006-12-12,12DEC2006,1,,Day 1 Baseline,0,"Thickness, Upper Extremities",THKUEX,7,,2,2,,,,,,,,,,Y,Y,,,,,,2
BBC,BBC-10-148,148,10,79,ARM B,2,ARM B,2,Y,Y,Y,Y,12DEC2006,07MAR2007,2,WEEK 2,2006-12-28,28DEC2006,17,,Week 2,2,"Thickness, Upper Extremities",THKUEX,7,,2,2,0,0,,8-22 DAYS,15,2,8,22,DAYS,,Y,,,,,2,2
BBC,BBC-10-148,148,10,80,ARM B,2,ARM B,2,Y,Y,Y,Y,12DEC2006,07MAR2007,4,WEEK 4,2007-01-11,11JAN2007,31,,Week 4,4,"Thickness, Upper Extremities",THKUEX,7,,1,2,-1,-50,,23-36 DAYS,29,2,23,36,DAYS,,Y,,,,,1,2
BBC,BBC-10-148,148,10,81,ARM B,2,ARM B,2,Y,Y,Y,Y,12DEC2006,07MAR2007,6,WEEK 6,2007-01-25,25JAN2007,45,,Week 6,6,"Thickness, Upper Extremities",THKUEX,7,,1,2,-1,-50,,37-50 DAYS,43,2,37,50,DAYS,,Y,,,,,1,2
BBC,BBC-10-148,148,10,82,ARM B,2,ARM B,2,Y,Y,Y,Y,12DEC2006,07MAR2007,8,WEEK 8,2007-02-08,08FEB2007,59,,Week 8,8,"Thickness, Upper Extremities",THKUEX,7,,1,2,-1,-50,,51-71 DAYS,57,2,51,71,DAYS,,Y,,,,,1,2
BBC,BBC-10-148,148,10,83,ARM B,2,ARM B,2,Y,Y,Y,Y,12DEC2006,07MAR2007,12,WEEK 12,2007-03-15,15MAR2007,94,,Week 12,12,"Thickness, Upper Extremities",THKUEX,7,,1,2,-1,-50,,72-99 DAYS,85,9,72,99,DAYS,,,,,,,1,2
BBC,BBC-10-148,148,10,84,ARM B,2,ARM B,2,Y,Y,Y,Y,12DEC2006,07MAR2007,16,WEEK 16,2007-04-03,03APR2007,113,,Week 16,16,"Thickness, Upper Extremities",THKUEX,7,,1,2,-1,-50,,22-36 DAYS POST-LAST-DOSE,114,1,107,121,DAYS,,,,,,,1,2
BBC,BBC-10-148,148,10,50,ARM B,2,ARM B,2,Y,Y,Y,Y,12DEC2006,07MAR2007,1,DAY 1,2006-12-12,12DEC2006,1,,Day 1 Baseline,0,"Thickness, Trunk",THKTRUNK,8,,0,0,,,,,,,,,,Y,Y,,,,,,0
BBC,BBC-10-148,148,10,51,ARM B,2,ARM B,2,Y,Y,Y,Y,12DEC2006,07MAR2007,2,WEEK 2,2006-12-28,28DEC2006,17,,Week 2,2,"Thickness, Trunk",THKTRUNK,8,,0,0,0,,,8-22 DAYS,15,2,8,22,DAYS,,Y,,,,,0,0
BBC,BBC-10-148,148,10,52,ARM B,2,ARM B,2,Y,Y,Y,Y,12DEC2006,07MAR2007,4,WEEK 4,2007-01-11,11JAN2007,31,,Week 4,4,"Thickness, Trunk",THKTRUNK,8,,0,0,0,,,23-36 DAYS,29,2,23,36,DAYS,,Y,,,,,0,0
BBC,BBC-10-148,148,10,53,ARM B,2,ARM B,2,Y,Y,Y,Y,12DEC2006,07MAR2007,6,WEEK 6,2007-01-25,25JAN2007,45,,Week 6,6,"Thickness, Trunk",THKTRUNK,8,,0,0,0,,,37-50 DAYS,43,2,37,50,DAYS,,Y,,,,,0,0
BBC,BBC-10-148,148,10,54,ARM B,2,ARM B,2,Y,Y,Y,Y,12DEC2006,07MAR2007,8,WEEK 8,2007-02-08,08FEB2007,59,,Week 8,8,"Thickness, Trunk",THKTRUNK,8,,0,0,0,,,51-71 DAYS,57,2,51,71,DAYS,,Y,,,,,0,0
BBC,BBC-10-148,148,10,55,ARM B,2,ARM B,2,Y,Y,Y,Y,12DEC2006,07MAR2007,12,WEEK 12,2007-03-15,15MAR2007,94,,Week 12,12,"Thickness, Trunk",THKTRUNK,8,,0,0,0,,,72-99 DAYS,85,9,72,99,DAYS,,,,,,,0,0
BBC,BBC-10-148,148,10,56,ARM B,2,ARM B,2,Y,Y,Y,Y,12DEC2006,07MAR2007,16,WEEK 16,2007-04-03,03APR2007,113,,Week 16,16,"Thickness, Trunk",THKTRUNK,8,,0,0,0,,,22-36 DAYS POST-LAST-DOSE,114,1,107,121,DAYS,,,,,,,0,0
BBC,BBC-10-148,148,10,22,ARM B,2,ARM B,2,Y,Y,Y,Y,12DEC2006,07MAR2007,1,DAY 1,2006-12-12,12DEC2006,1,,Day 1 Baseline,0,"Thickness, Lower Extremities",THKLEX,9,,2,2,,,,,,,,,,Y,Y,,,,,,2
BBC,BBC-10-148,148,10,23,ARM B,2,ARM B,2,Y,Y,Y,Y,12DEC2006,07MAR2007,2,WEEK 2,2006-12-28,28DEC2006,17,,Week 2,2,"Thickness, Lower Extremities",THKLEX,9,,2,2,0,0,,8-22 DAYS,15,2,8,22,DAYS,,Y,,,,,2,2
BBC,BBC-10-148,148,10,24,ARM B,2,ARM B,2,Y,Y,Y,Y,12DEC2006,07MAR2007,4,WEEK 4,2007-01-11,11JAN2007,31,,Week 4,4,"Thickness, Lower Extremities",THKLEX,9,,2,2,0,0,,23-36 DAYS,29,2,23,36,DAYS,,Y,,,,,2,2
BBC,BBC-10-148,148,10,25,ARM B,2,ARM B,2,Y,Y,Y,Y,12DEC2006,07MAR2007,6,WEEK 6,2007-01-25,25JAN2007,45,,Week 6,6,"Thickness, Lower Extremities",THKLEX,9,,1,2,-1,-50,,37-50 DAYS,43,2,37,50,DAYS,,Y,,,,,1,2
BBC,BBC-10-148,148,10,26,ARM B,2,ARM B,2,Y,Y,Y,Y,12DEC2006,07MAR2007,8,WEEK 8,2007-02-08,08FEB2007,59,,Week 8,8,"Thickness, Lower Extremities",THKLEX,9,,2,2,0,0,,51-71 DAYS,57,2,51,71,DAYS,,Y,,,,,2,2
BBC,BBC-10-148,148,10,27,ARM B,2,ARM B,2,Y,Y,Y,Y,12DEC2006,07MAR2007,12,WEEK 12,2007-03-15,15MAR2007,94,,Week 12,12,"Thickness, Lower Extremities",THKLEX,9,,1,2,-1,-50,,72-99 DAYS,85,9,72,99,DAYS,,,,,,,1,2
BBC,BBC-10-148,148,10,28,ARM B,2,ARM B,2,Y,Y,Y,Y,12DEC2006,07MAR2007,16,WEEK 16,2007-04-03,03APR2007,113,,Week 16,16,"Thickness, Lower Extremities",THKLEX,9,,0,2,-2,-100,,22-36 DAYS POST-LAST-DOSE,114,1,107,121,DAYS,,,,,,,0,2
BBC,BBC-10-148,148,10,71,ARM B,2,ARM B,2,Y,Y,Y,Y,12DEC2006,07MAR2007,1,DAY 1,2006-12-12,12DEC2006,1,,Day 1 Baseline,0,"Scale, Upper Extremities",SCUEX,10,,3,3,,,,,,,,,,Y,Y,,,,,,3
BBC,BBC-10-148,148,10,72,ARM B,2,ARM B,2,Y,Y,Y,Y,12DEC2006,07MAR2007,2,WEEK 2,2006-12-28,28DEC2006,17,,Week 2,2,"Scale, Upper Extremities",SCUEX,10,,2,3,-1,-33.3,,8-22 DAYS,15,2,8,22,DAYS,,Y,,,,,2,3
BBC,BBC-10-148,148,10,73,ARM B,2,ARM B,2,Y,Y,Y,Y,12DEC2006,07MAR2007,4,WEEK 4,2007-01-11,11JAN2007,31,,Week 4,4,"Scale, Upper Extremities",SCUEX,10,,2,3,-1,-33.3,,23-36 DAYS,29,2,23,36,DAYS,,Y,,,,,2,3
BBC,BBC-10-148,148,10,74,ARM B,2,ARM B,2,Y,Y,Y,Y,12DEC2006,07MAR2007,6,WEEK 6,2007-01-25,25JAN2007,45,,Week 6,6,"Scale, Upper Extremities",SCUEX,10,,0,3,-3,-100,,37-50 DAYS,43,2,37,50,DAYS,,Y,,,,,0,3
BBC,BBC-10-148,148,10,75,ARM B,2,ARM B,2,Y,Y,Y,Y,12DEC2006,07MAR2007,8,WEEK 8,2007-02-08,08FEB2007,59,,Week 8,8,"Scale, Upper Extremities",SCUEX,10,,2,3,-1,-33.3,,51-71 DAYS,57,2,51,71,DAYS,,Y,,,,,2,3
BBC,BBC-10-148,148,10,76,ARM B,2,ARM B,2,Y,Y,Y,Y,12DEC2006,07MAR2007,12,WEEK 12,2007-03-15,15MAR2007,94,,Week 12,12,"Scale, Upper Extremities",SCUEX,10,,0,3,-3,-100,,72-99 DAYS,85,9,72,99,DAYS,,,,,,,0,3
BBC,BBC-10-148,148,10,77,ARM B,2,ARM B,2,Y,Y,Y,Y,12DEC2006,07MAR2007,16,WEEK 16,2007-04-03,03APR2007,113,,Week 16,16,"Scale, Upper Extremities",SCUEX,10,,1,3,-2,-66.7,,22-36 DAYS POST-LAST-DOSE,114,1,107,121,DAYS,,,,,,,1,3
BBC,BBC-10-148,148,10,43,ARM B,2,ARM B,2,Y,Y,Y,Y,12DEC2006,07MAR2007,1,DAY 1,2006-12-12,12DEC2006,1,,Day 1 Baseline,0,"Scale, Trunk",SCTRUNK,11,,0,0,,,,,,,,,,Y,Y,,,,,,0
BBC,BBC-10-148,148,10,44,ARM B,2,ARM B,2,Y,Y,Y,Y,12DEC2006,07MAR2007,2,WEEK 2,2006-12-28,28DEC2006,17,,Week 2,2,"Scale, Trunk",SCTRUNK,11,,0,0,0,,,8-22 DAYS,15,2,8,22,DAYS,,Y,,,,,0,0
BBC,BBC-10-148,148,10,45,ARM B,2,ARM B,2,Y,Y,Y,Y,12DEC2006,07MAR2007,4,WEEK 4,2007-01-11,11JAN2007,31,,Week 4,4,"Scale, Trunk",SCTRUNK,11,,0,0,0,,,23-36 DAYS,29,2,23,36,DAYS,,Y,,,,,0,0
BBC,BBC-10-148,148,10,46,ARM B,2,ARM B,2,Y,Y,Y,Y,12DEC2006,07MAR2007,6,WEEK 6,2007-01-25,25JAN2007,45,,Week 6,6,"Scale, Trunk",SCTRUNK,11,,0,0,0,,,37-50 DAYS,43,2,37,50,DAYS,,Y,,,,,0,0
BBC,BBC-10-148,148,10,47,ARM B,2,ARM B,2,Y,Y,Y,Y,12DEC2006,07MAR2007,8,WEEK 8,2007-02-08,08FEB2007,59,,Week 8,8,"Scale, Trunk",SCTRUNK,11,,0,0,0,,,51-71 DAYS,57,2,51,71,DAYS,,Y,,,,,0,0
BBC,BBC-10-148,148,10,48,ARM B,2,ARM B,2,Y,Y,Y,Y,12DEC2006,07MAR2007,12,WEEK 12,2007-03-15,15MAR2007,94,,Week 12,12,"Scale, Trunk",SCTRUNK,11,,0,0,0,,,72-99 DAYS,85,9,72,99,DAYS,,,,,,,0,0
BBC,BBC-10-148,148,10,49,ARM B,2,ARM B,2,Y,Y,Y,Y,12DEC2006,07MAR2007,16,WEEK 16,2007-04-03,03APR2007,113,,Week 16,16,"Scale, Trunk",SCTRUNK,11,,0,0,0,,,22-36 DAYS POST-LAST-DOSE,114,1,107,121,DAYS,,,,,,,0,0
BBC,BBC-10-148,148,10,15,ARM B,2,ARM B,2,Y,Y,Y,Y,12DEC2006,07MAR2007,1,DAY 1,2006-12-12,12DEC2006,1,,Day 1 Baseline,0,"Scale, Lower Extremities",SCLEX,12,,2,2,,,,,,,,,,Y,Y,,,,,,2
BBC,BBC-10-148,148,10,16,ARM B,2,ARM B,2,Y,Y,Y,Y,12DEC2006,07MAR2007,2,WEEK 2,2006-12-28,28DEC2006,17,,Week 2,2,"Scale, Lower Extremities",SCLEX,12,,2,2,0,0,,8-22 DAYS,15,2,8,22,DAYS,,Y,,,,,2,2
BBC,BBC-10-148,148,10,17,ARM B,2,ARM B,2,Y,Y,Y,Y,12DEC2006,07MAR2007,4,WEEK 4,2007-01-11,11JAN2007,31,,Week 4,4,"Scale, Lower Extremities",SCLEX,12,,2,2,0,0,,23-36 DAYS,29,2,23,36,DAYS,,Y,,,,,2,2
BBC,BBC-10-148,148,10,18,ARM B,2,ARM B,2,Y,Y,Y,Y,12DEC2006,07MAR2007,6,WEEK 6,2007-01-25,25JAN2007,45,,Week 6,6,"Scale, Lower Extremities",SCLEX,12,,1,2,-1,-50,,37-50 DAYS,43,2,37,50,DAYS,,Y,,,,,1,2
BBC,BBC-10-148,148,10,19,ARM B,2,ARM B,2,Y,Y,Y,Y,12DEC2006,07MAR2007,8,WEEK 8,2007-02-08,08FEB2007,59,,Week 8,8,"Scale, Lower Extremities",SCLEX,12,,2,2,0,0,,51-71 DAYS,57,2,51,71,DAYS,,Y,,,,,2,2
BBC,BBC-10-148,148,10,20,ARM B,2,ARM B,2,Y,Y,Y,Y,12DEC2006,07MAR2007,12,WEEK 12,2007-03-15,15MAR2007,94,,Week 12,12,"Scale, Lower Extremities",SCLEX,12,,0,2,-2,-100,,72-99 DAYS,85,9,72,99,DAYS,,,,,,,0,2
BBC,BBC-10-148,148,10,21,ARM B,2,ARM B,2,Y,Y,Y,Y,12DEC2006,07MAR2007,16,WEEK 16,2007-04-03,03APR2007,113,,Week 16,16,"Scale, Lower Extremities",SCLEX,12,,1,2,-1,-50,,22-36 DAYS POST-LAST-DOSE,114,1,107,121,DAYS,,,,,,,1,2
BBC,BBC-10-148,148,10,78,ARM B,2,ARM B,2,Y,Y,Y,Y,12DEC2006,07MAR2007,1,DAY 1,2006-12-12,12DEC2006,1,,Day 1 Baseline,0,Area Adjusted Psoriasis Area and Severity Index,PASISCOR,13,DERIVED,4.1,4.1,,,,,,,,,,Y,Y,,,,,,4.1
BBC,BBC-10-148,148,10,79,ARM B,2,ARM B,2,Y,Y,Y,Y,12DEC2006,07MAR2007,2,WEEK 2,2006-12-28,28DEC2006,17,,Week 2,2,Area Adjusted Psoriasis Area and Severity Index,PASISCOR,13,DERIVED,3.9,4.1,-0.2,-4.9,,8-22 DAYS,15,2,8,22,DAYS,,Y,,,,,3.9,4.1
BBC,BBC-10-148,148,10,80,ARM B,2,ARM B,2,Y,Y,Y,Y,12DEC2006,07MAR2007,4,WEEK 4,2007-01-11,11JAN2007,31,,Week 4,4,Area Adjusted Psoriasis Area and Severity Index,PASISCOR,13,DERIVED,3.5,4.1,-0.6,-14.6,,23-36 DAYS,29,2,23,36,DAYS,,Y,,,,,3.5,4.1
BBC,BBC-10-148,148,10,81,ARM B,2,ARM B,2,Y,Y,Y,Y,12DEC2006,07MAR2007,6,WEEK 6,2007-01-25,25JAN2007,45,,Week 6,6,Area Adjusted Psoriasis Area and Severity Index,PASISCOR,13,DERIVED,1.7,4.1,-2.4,-58.5,,37-50 DAYS,43,2,37,50,DAYS,,Y,,,Improvement in AAPASI score from baseline of at least 50%,Y,1.7,4.1
BBC,BBC-10-148,148,10,82,ARM B,2,ARM B,2,Y,Y,Y,Y,12DEC2006,07MAR2007,8,WEEK 8,2007-02-08,08FEB2007,59,,Week 8,8,Area Adjusted Psoriasis Area and Severity Index,PASISCOR,13,DERIVED,3.5,4.1,-0.6,-14.6,,51-71 DAYS,57,2,51,71,DAYS,,Y,,,,,3.5,4.1
BBC,BBC-10-148,148,10,83,ARM B,2,ARM B,2,Y,Y,Y,Y,12DEC2006,07MAR2007,12,WEEK 12,2007-03-15,15MAR2007,94,,Week 12,12,Area Adjusted Psoriasis Area and Severity Index,PASISCOR,13,DERIVED,2,4.1,-2.1,-51.2,,72-99 DAYS,85,9,72,99,DAYS,,,,,Improvement in AAPASI score from baseline of at least 50%,Y,2,4.1
BBC,BBC-10-148,148,10,84,ARM B,2,ARM B,2,Y,Y,Y,Y,12DEC2006,07MAR2007,16,WEEK 16,2007-04-03,03APR2007,113,,Week 16,16,Area Adjusted Psoriasis Area and Severity Index,PASISCOR,13,DERIVED,1.7,4.1,-2.4,-58.5,,22-36 DAYS POST-LAST-DOSE,114,1,107,121,DAYS,,,,,Improvement in AAPASI score from baseline of at least 50%,Y,1.7,4.1
BBC,BBC-10-149,149,10,57,ARM A,1,ARM A,1,Y,Y,Y,Y,13DEC2006,13MAR2007,1,DAY 1,2006-12-13,13DEC2006,1,,Day 1 Baseline,0,"Area Score, Upper Extremities",ASUEX,1,,1,1,,,,,,,,,,Y,Y,,,,,,1
BBC,BBC-10-149,149,10,58,ARM A,1,ARM A,1,Y,Y,Y,Y,13DEC2006,13MAR2007,2,WEEK 2,2006-12-29,29DEC2006,17,,Week 2,2,"Area Score, Upper Extremities",ASUEX,1,,1,1,0,0,,8-22 DAYS,15,2,8,22,DAYS,,Y,,,,,1,1
BBC,BBC-10-149,149,10,59,ARM A,1,ARM A,1,Y,Y,Y,Y,13DEC2006,13MAR2007,4,WEEK 4,2007-01-12,12JAN2007,31,,Week 4,4,"Area Score, Upper Extremities",ASUEX,1,,1,1,0,0,,23-36 DAYS,29,2,23,36,DAYS,,Y,,,,,1,1
BBC,BBC-10-149,149,10,60,ARM A,1,ARM A,1,Y,Y,Y,Y,13DEC2006,13MAR2007,6,WEEK 6,2007-01-26,26JAN2007,45,,Week 6,6,"Area Score, Upper Extremities",ASUEX,1,,1,1,0,0,,37-50 DAYS,43,2,37,50,DAYS,,Y,,,,,1,1
BBC,BBC-10-149,149,10,61,ARM A,1,ARM A,1,Y,Y,Y,Y,13DEC2006,13MAR2007,8,WEEK 8,2007-02-12,12FEB2007,62,,Week 8,8,"Area Score, Upper Extremities",ASUEX,1,,1,1,0,0,,51-71 DAYS,57,5,51,71,DAYS,,Y,,,,,1,1
BBC,BBC-10-149,149,10,62,ARM A,1,ARM A,1,Y,Y,Y,Y,13DEC2006,13MAR2007,12,WEEK 12,2007-03-13,13MAR2007,91,,Week 12,12,"Area Score, Upper Extremities",ASUEX,1,,1,1,0,0,,72-99 DAYS,85,6,72,99,DAYS,,Y,,,,,1,1
BBC,BBC-10-149,149,10,63,ARM A,1,ARM A,1,Y,Y,Y,Y,13DEC2006,13MAR2007,16,WEEK 16,2007-04-16,16APR2007,125,,Week 16,16,"Area Score, Upper Extremities",ASUEX,1,,1,1,0,0,,22-36 DAYS POST-LAST-DOSE,119,6,112,126,DAYS,,,,,,,1,1
BBC,BBC-10-149,149,10,29,ARM A,1,ARM A,1,Y,Y,Y,Y,13DEC2006,13MAR2007,1,DAY 1,2006-12-13,13DEC2006,1,,Day 1 Baseline,0,"Area Score, Trunk",ASTRUNK,2,,0,0,,,,,,,,,,Y,Y,,,,,,0
BBC,BBC-10-149,149,10,30,ARM A,1,ARM A,1,Y,Y,Y,Y,13DEC2006,13MAR2007,2,WEEK 2,2006-12-29,29DEC2006,17,,Week 2,2,"Area Score, Trunk",ASTRUNK,2,,0,0,0,,,8-22 DAYS,15,2,8,22,DAYS,,Y,,,,,0,0
BBC,BBC-10-149,149,10,31,ARM A,1,ARM A,1,Y,Y,Y,Y,13DEC2006,13MAR2007,4,WEEK 4,2007-01-12,12JAN2007,31,,Week 4,4,"Area Score, Trunk",ASTRUNK,2,,0,0,0,,,23-36 DAYS,29,2,23,36,DAYS,,Y,,,,,0,0
BBC,BBC-10-149,149,10,32,ARM A,1,ARM A,1,Y,Y,Y,Y,13DEC2006,13MAR2007,6,WEEK 6,2007-01-26,26JAN2007,45,,Week 6,6,"Area Score, Trunk",ASTRUNK,2,,0,0,0,,,37-50 DAYS,43,2,37,50,DAYS,,Y,,,,,0,0
BBC,BBC-10-149,149,10,33,ARM A,1,ARM A,1,Y,Y,Y,Y,13DEC2006,13MAR2007,8,WEEK 8,2007-02-12,12FEB2007,62,,Week 8,8,"Area Score, Trunk",ASTRUNK,2,,0,0,0,,,51-71 DAYS,57,5,51,71,DAYS,,Y,,,,,0,0
BBC,BBC-10-149,149,10,34,ARM A,1,ARM A,1,Y,Y,Y,Y,13DEC2006,13MAR2007,12,WEEK 12,2007-03-13,13MAR2007,91,,Week 12,12,"Area Score, Trunk",ASTRUNK,2,,0,0,0,,,72-99 DAYS,85,6,72,99,DAYS,,Y,,,,,0,0
BBC,BBC-10-149,149,10,35,ARM A,1,ARM A,1,Y,Y,Y,Y,13DEC2006,13MAR2007,16,WEEK 16,2007-04-16,16APR2007,125,,Week 16,16,"Area Score, Trunk",ASTRUNK,2,,0,0,0,,,22-36 DAYS POST-LAST-DOSE,119,6,112,126,DAYS,,,,,,,0,0
BBC,BBC-10-149,149,10,1,ARM A,1,ARM A,1,Y,Y,Y,Y,13DEC2006,13MAR2007,1,DAY 1,2006-12-13,13DEC2006,1,,Day 1 Baseline,0,"Area Score, Lower Extremities",ASLEX,3,,1,1,,,,,,,,,,Y,Y,,,,,,1
BBC,BBC-10-149,149,10,2,ARM A,1,ARM A,1,Y,Y,Y,Y,13DEC2006,13MAR2007,2,WEEK 2,2006-12-29,29DEC2006,17,,Week 2,2,"Area Score, Lower Extremities",ASLEX,3,,1,1,0,0,,8-22 DAYS,15,2,8,22,DAYS,,Y,,,,,1,1
BBC,BBC-10-149,149,10,3,ARM A,1,ARM A,1,Y,Y,Y,Y,13DEC2006,13MAR2007,4,WEEK 4,2007-01-12,12JAN2007,31,,Week 4,4,"Area Score, Lower Extremities",ASLEX,3,,1,1,0,0,,23-36 DAYS,29,2,23,36,DAYS,,Y,,,,,1,1
BBC,BBC-10-149,149,10,4,ARM A,1,ARM A,1,Y,Y,Y,Y,13DEC2006,13MAR2007,6,WEEK 6,2007-01-26,26JAN2007,45,,Week 6,6,"Area Score, Lower Extremities",ASLEX,3,,1,1,0,0,,37-50 DAYS,43,2,37,50,DAYS,,Y,,,,,1,1
BBC,BBC-10-149,149,10,5,ARM A,1,ARM A,1,Y,Y,Y,Y,13DEC2006,13MAR2007,8,WEEK 8,2007-02-12,12FEB2007,62,,Week 8,8,"Area Score, Lower Extremities",ASLEX,3,,1,1,0,0,,51-71 DAYS,57,5,51,71,DAYS,,Y,,,,,1,1
BBC,BBC-10-149,149,10,6,ARM A,1,ARM A,1,Y,Y,Y,Y,13DEC2006,13MAR2007,12,WEEK 12,2007-03-13,13MAR2007,91,,Week 12,12,"Area Score, Lower Extremities",ASLEX,3,,1,1,0,0,,72-99 DAYS,85,6,72,99,DAYS,,Y,,,,,1,1
BBC,BBC-10-149,149,10,7,ARM A,1,ARM A,1,Y,Y,Y,Y,13DEC2006,13MAR2007,16,WEEK 16,2007-04-16,16APR2007,125,,Week 16,16,"Area Score, Lower Extremities",ASLEX,3,,1,1,0,0,,22-36 DAYS POST-LAST-DOSE,119,6,112,126,DAYS,,,,,,,1,1
BBC,BBC-10-149,149,10,64,ARM A,1,ARM A,1,Y,Y,Y,Y,13DEC2006,13MAR2007,1,DAY 1,2006-12-13,13DEC2006,1,,Day 1 Baseline,0,"Erythema, Upper Extremities",ERUEX,4,,2,2,,,,,,,,,,Y,Y,,,,,,2
BBC,BBC-10-149,149,10,65,ARM A,1,ARM A,1,Y,Y,Y,Y,13DEC2006,13MAR2007,2,WEEK 2,2006-12-29,29DEC2006,17,,Week 2,2,"Erythema, Upper Extremities",ERUEX,4,,2,2,0,0,,8-22 DAYS,15,2,8,22,DAYS,,Y,,,,,2,2
BBC,BBC-10-149,149,10,66,ARM A,1,ARM A,1,Y,Y,Y,Y,13DEC2006,13MAR2007,4,WEEK 4,2007-01-12,12JAN2007,31,,Week 4,4,"Erythema, Upper Extremities",ERUEX,4,,1,2,-1,-50,,23-36 DAYS,29,2,23,36,DAYS,,Y,,,,,1,2
BBC,BBC-10-149,149,10,67,ARM A,1,ARM A,1,Y,Y,Y,Y,13DEC2006,13MAR2007,6,WEEK 6,2007-01-26,26JAN2007,45,,Week 6,6,"Erythema, Upper Extremities",ERUEX,4,,0,2,-2,-100,,37-50 DAYS,43,2,37,50,DAYS,,Y,,,,,0,2
BBC,BBC-10-149,149,10,68,ARM A,1,ARM A,1,Y,Y,Y,Y,13DEC2006,13MAR2007,8,WEEK 8,2007-02-12,12FEB2007,62,,Week 8,8,"Erythema, Upper Extremities",ERUEX,4,,0,2,-2,-100,,51-71 DAYS,57,5,51,71,DAYS,,Y,,,,,0,2
BBC,BBC-10-149,149,10,69,ARM A,1,ARM A,1,Y,Y,Y,Y,13DEC2006,13MAR2007,12,WEEK 12,2007-03-13,13MAR2007,91,,Week 12,12,"Erythema, Upper Extremities",ERUEX,4,,0,2,-2,-100,,72-99 DAYS,85,6,72,99,DAYS,,Y,,,,,0,2
BBC,BBC-10-149,149,10,70,ARM A,1,ARM A,1,Y,Y,Y,Y,13DEC2006,13MAR2007,16,WEEK 16,2007-04-16,16APR2007,125,,Week 16,16,"Erythema, Upper Extremities",ERUEX,4,,0,2,-2,-100,,22-36 DAYS POST-LAST-DOSE,119,6,112,126,DAYS,,,,,,,0,2
BBC,BBC-10-149,149,10,36,ARM A,1,ARM A,1,Y,Y,Y,Y,13DEC2006,13MAR2007,1,DAY 1,2006-12-13,13DEC2006,1,,Day 1 Baseline,0,"Erythema, Trunk",ERTRUNK,5,,0,0,,,,,,,,,,Y,Y,,,,,,0
BBC,BBC-10-149,149,10,37,ARM A,1,ARM A,1,Y,Y,Y,Y,13DEC2006,13MAR2007,2,WEEK 2,2006-12-29,29DEC2006,17,,Week 2,2,"Erythema, Trunk",ERTRUNK,5,,0,0,0,,,8-22 DAYS,15,2,8,22,DAYS,,Y,,,,,0,0
BBC,BBC-10-149,149,10,38,ARM A,1,ARM A,1,Y,Y,Y,Y,13DEC2006,13MAR2007,4,WEEK 4,2007-01-12,12JAN2007,31,,Week 4,4,"Erythema, Trunk",ERTRUNK,5,,0,0,0,,,23-36 DAYS,29,2,23,36,DAYS,,Y,,,,,0,0
BBC,BBC-10-149,149,10,39,ARM A,1,ARM A,1,Y,Y,Y,Y,13DEC2006,13MAR2007,6,WEEK 6,2007-01-26,26JAN2007,45,,Week 6,6,"Erythema, Trunk",ERTRUNK,5,,0,0,0,,,37-50 DAYS,43,2,37,50,DAYS,,Y,,,,,0,0
BBC,BBC-10-149,149,10,40,ARM A,1,ARM A,1,Y,Y,Y,Y,13DEC2006,13MAR2007,8,WEEK 8,2007-02-12,12FEB2007,62,,Week 8,8,"Erythema, Trunk",ERTRUNK,5,,0,0,0,,,51-71 DAYS,57,5,51,71,DAYS,,Y,,,,,0,0
BBC,BBC-10-149,149,10,41,ARM A,1,ARM A,1,Y,Y,Y,Y,13DEC2006,13MAR2007,12,WEEK 12,2007-03-13,13MAR2007,91,,Week 12,12,"Erythema, Trunk",ERTRUNK,5,,0,0,0,,,72-99 DAYS,85,6,72,99,DAYS,,Y,,,,,0,0
BBC,BBC-10-149,149,10,42,ARM A,1,ARM A,1,Y,Y,Y,Y,13DEC2006,13MAR2007,16,WEEK 16,2007-04-16,16APR2007,125,,Week 16,16,"Erythema, Trunk",ERTRUNK,5,,0,0,0,,,22-36 DAYS POST-LAST-DOSE,119,6,112,126,DAYS,,,,,,,0,0
BBC,BBC-10-149,149,10,8,ARM A,1,ARM A,1,Y,Y,Y,Y,13DEC2006,13MAR2007,1,DAY 1,2006-12-13,13DEC2006,1,,Day 1 Baseline,0,"Erythema, Lower Extremities",ERLEX,6,,2,2,,,,,,,,,,Y,Y,,,,,,2
BBC,BBC-10-149,149,10,9,ARM A,1,ARM A,1,Y,Y,Y,Y,13DEC2006,13MAR2007,2,WEEK 2,2006-12-29,29DEC2006,17,,Week 2,2,"Erythema, Lower Extremities",ERLEX,6,,2,2,0,0,,8-22 DAYS,15,2,8,22,DAYS,,Y,,,,,2,2
BBC,BBC-10-149,149,10,10,ARM A,1,ARM A,1,Y,Y,Y,Y,13DEC2006,13MAR2007,4,WEEK 4,2007-01-12,12JAN2007,31,,Week 4,4,"Erythema, Lower Extremities",ERLEX,6,,1,2,-1,-50,,23-36 DAYS,29,2,23,36,DAYS,,Y,,,,,1,2
BBC,BBC-10-149,149,10,11,ARM A,1,ARM A,1,Y,Y,Y,Y,13DEC2006,13MAR2007,6,WEEK 6,2007-01-26,26JAN2007,45,,Week 6,6,"Erythema, Lower Extremities",ERLEX,6,,0,2,-2,-100,,37-50 DAYS,43,2,37,50,DAYS,,Y,,,,,0,2
BBC,BBC-10-149,149,10,12,ARM A,1,ARM A,1,Y,Y,Y,Y,13DEC2006,13MAR2007,8,WEEK 8,2007-02-12,12FEB2007,62,,Week 8,8,"Erythema, Lower Extremities",ERLEX,6,,0,2,-2,-100,,51-71 DAYS,57,5,51,71,DAYS,,Y,,,,,0,2
BBC,BBC-10-149,149,10,13,ARM A,1,ARM A,1,Y,Y,Y,Y,13DEC2006,13MAR2007,12,WEEK 12,2007-03-13,13MAR2007,91,,Week 12,12,"Erythema, Lower Extremities",ERLEX,6,,0,2,-2,-100,,72-99 DAYS,85,6,72,99,DAYS,,Y,,,,,0,2
BBC,BBC-10-149,149,10,14,ARM A,1,ARM A,1,Y,Y,Y,Y,13DEC2006,13MAR2007,16,WEEK 16,2007-04-16,16APR2007,125,,Week 16,16,"Erythema, Lower Extremities",ERLEX,6,,0,2,-2,-100,,22-36 DAYS POST-LAST-DOSE,119,6,112,126,DAYS,,,,,,,0,2
BBC,BBC-10-149,149,10,78,ARM A,1,ARM A,1,Y,Y,Y,Y,13DEC2006,13MAR2007,1,DAY 1,2006-12-13,13DEC2006,1,,Day 1 Baseline,0,"Thickness, Upper Extremities",THKUEX,7,,2,2,,,,,,,,,,Y,Y,,,,,,2
BBC,BBC-10-149,149,10,79,ARM A,1,ARM A,1,Y,Y,Y,Y,13DEC2006,13MAR2007,2,WEEK 2,2006-12-29,29DEC2006,17,,Week 2,2,"Thickness, Upper Extremities",THKUEX,7,,2,2,0,0,,8-22 DAYS,15,2,8,22,DAYS,,Y,,,,,2,2
BBC,BBC-10-149,149,10,80,ARM A,1,ARM A,1,Y,Y,Y,Y,13DEC2006,13MAR2007,4,WEEK 4,2007-01-12,12JAN2007,31,,Week 4,4,"Thickness, Upper Extremities",THKUEX,7,,2,2,0,0,,23-36 DAYS,29,2,23,36,DAYS,,Y,,,,,2,2
BBC,BBC-10-149,149,10,81,ARM A,1,ARM A,1,Y,Y,Y,Y,13DEC2006,13MAR2007,6,WEEK 6,2007-01-26,26JAN2007,45,,Week 6,6,"Thickness, Upper Extremities",THKUEX,7,,0,2,-2,-100,,37-50 DAYS,43,2,37,50,DAYS,,Y,,,,,0,2
BBC,BBC-10-149,149,10,82,ARM A,1,ARM A,1,Y,Y,Y,Y,13DEC2006,13MAR2007,8,WEEK 8,2007-02-12,12FEB2007,62,,Week 8,8,"Thickness, Upper Extremities",THKUEX,7,,0,2,-2,-100,,51-71 DAYS,57,5,51,71,DAYS,,Y,,,,,0,2
BBC,BBC-10-149,149,10,83,ARM A,1,ARM A,1,Y,Y,Y,Y,13DEC2006,13MAR2007,12,WEEK 12,2007-03-13,13MAR2007,91,,Week 12,12,"Thickness, Upper Extremities",THKUEX,7,,0,2,-2,-100,,72-99 DAYS,85,6,72,99,DAYS,,Y,,,,,0,2
BBC,BBC-10-149,149,10,84,ARM A,1,ARM A,1,Y,Y,Y,Y,13DEC2006,13MAR2007,16,WEEK 16,2007-04-16,16APR2007,125,,Week 16,16,"Thickness, Upper Extremities",THKUEX,7,,0,2,-2,-100,,22-36 DAYS POST-LAST-DOSE,119,6,112,126,DAYS,,,,,,,0,2
BBC,BBC-10-149,149,10,50,ARM A,1,ARM A,1,Y,Y,Y,Y,13DEC2006,13MAR2007,1,DAY 1,2006-12-13,13DEC2006,1,,Day 1 Baseline,0,"Thickness, Trunk",THKTRUNK,8,,0,0,,,,,,,,,,Y,Y,,,,,,0
BBC,BBC-10-149,149,10,51,ARM A,1,ARM A,1,Y,Y,Y,Y,13DEC2006,13MAR2007,2,WEEK 2,2006-12-29,29DEC2006,17,,Week 2,2,"Thickness, Trunk",THKTRUNK,8,,0,0,0,,,8-22 DAYS,15,2,8,22,DAYS,,Y,,,,,0,0
BBC,BBC-10-149,149,10,52,ARM A,1,ARM A,1,Y,Y,Y,Y,13DEC2006,13MAR2007,4,WEEK 4,2007-01-12,12JAN2007,31,,Week 4,4,"Thickness, Trunk",THKTRUNK,8,,0,0,0,,,23-36 DAYS,29,2,23,36,DAYS,,Y,,,,,0,0
BBC,BBC-10-149,149,10,53,ARM A,1,ARM A,1,Y,Y,Y,Y,13DEC2006,13MAR2007,6,WEEK 6,2007-01-26,26JAN2007,45,,Week 6,6,"Thickness, Trunk",THKTRUNK,8,,0,0,0,,,37-50 DAYS,43,2,37,50,DAYS,,Y,,,,,0,0
BBC,BBC-10-149,149,10,54,ARM A,1,ARM A,1,Y,Y,Y,Y,13DEC2006,13MAR2007,8,WEEK 8,2007-02-12,12FEB2007,62,,Week 8,8,"Thickness, Trunk",THKTRUNK,8,,0,0,0,,,51-71 DAYS,57,5,51,71,DAYS,,Y,,,,,0,0
BBC,BBC-10-149,149,10,55,ARM A,1,ARM A,1,Y,Y,Y,Y,13DEC2006,13MAR2007,12,WEEK 12,2007-03-13,13MAR2007,91,,Week 12,12,"Thickness, Trunk",THKTRUNK,8,,0,0,0,,,72-99 DAYS,85,6,72,99,DAYS,,Y,,,,,0,0
BBC,BBC-10-149,149,10,56,ARM A,1,ARM A,1,Y,Y,Y,Y,13DEC2006,13MAR2007,16,WEEK 16,2007-04-16,16APR2007,125,,Week 16,16,"Thickness, Trunk",THKTRUNK,8,,0,0,0,,,22-36 DAYS POST-LAST-DOSE,119,6,112,126,DAYS,,,,,,,0,0
BBC,BBC-10-149,149,10,22,ARM A,1,ARM A,1,Y,Y,Y,Y,13DEC2006,13MAR2007,1,DAY 1,2006-12-13,13DEC2006,1,,Day 1 Baseline,0,"Thickness, Lower Extremities",THKLEX,9,,2,2,,,,,,,,,,Y,Y,,,,,,2
BBC,BBC-10-149,149,10,23,ARM A,1,ARM A,1,Y,Y,Y,Y,13DEC2006,13MAR2007,2,WEEK 2,2006-12-29,29DEC2006,17,,Week 2,2,"Thickness, Lower Extremities",THKLEX,9,,2,2,0,0,,8-22 DAYS,15,2,8,22,DAYS,,Y,,,,,2,2
BBC,BBC-10-149,149,10,24,ARM A,1,ARM A,1,Y,Y,Y,Y,13DEC2006,13MAR2007,4,WEEK 4,2007-01-12,12JAN2007,31,,Week 4,4,"Thickness, Lower Extremities",THKLEX,9,,2,2,0,0,,23-36 DAYS,29,2,23,36,DAYS,,Y,,,,,2,2
BBC,BBC-10-149,149,10,25,ARM A,1,ARM A,1,Y,Y,Y,Y,13DEC2006,13MAR2007,6,WEEK 6,2007-01-26,26JAN2007,45,,Week 6,6,"Thickness, Lower Extremities",THKLEX,9,,1,2,-1,-50,,37-50 DAYS,43,2,37,50,DAYS,,Y,,,,,1,2
BBC,BBC-10-149,149,10,26,ARM A,1,ARM A,1,Y,Y,Y,Y,13DEC2006,13MAR2007,8,WEEK 8,2007-02-12,12FEB2007,62,,Week 8,8,"Thickness, Lower Extremities",THKLEX,9,,1,2,-1,-50,,51-71 DAYS,57,5,51,71,DAYS,,Y,,,,,1,2
BBC,BBC-10-149,149,10,27,ARM A,1,ARM A,1,Y,Y,Y,Y,13DEC2006,13MAR2007,12,WEEK 12,2007-03-13,13MAR2007,91,,Week 12,12,"Thickness, Lower Extremities",THKLEX,9,,0,2,-2,-100,,72-99 DAYS,85,6,72,99,DAYS,,Y,,,,,0,2
BBC,BBC-10-149,149,10,28,ARM A,1,ARM A,1,Y,Y,Y,Y,13DEC2006,13MAR2007,16,WEEK 16,2007-04-16,16APR2007,125,,Week 16,16,"Thickness, Lower Extremities",THKLEX,9,,0,2,-2,-100,,22-36 DAYS POST-LAST-DOSE,119,6,112,126,DAYS,,,,,,,0,2
BBC,BBC-10-149,149,10,71,ARM A,1,ARM A,1,Y,Y,Y,Y,13DEC2006,13MAR2007,1,DAY 1,2006-12-13,13DEC2006,1,,Day 1 Baseline,0,"Scale, Upper Extremities",SCUEX,10,,2,2,,,,,,,,,,Y,Y,,,,,,2
BBC,BBC-10-149,149,10,72,ARM A,1,ARM A,1,Y,Y,Y,Y,13DEC2006,13MAR2007,2,WEEK 2,2006-12-29,29DEC2006,17,,Week 2,2,"Scale, Upper Extremities",SCUEX,10,,2,2,0,0,,8-22 DAYS,15,2,8,22,DAYS,,Y,,,,,2,2
BBC,BBC-10-149,149,10,73,ARM A,1,ARM A,1,Y,Y,Y,Y,13DEC2006,13MAR2007,4,WEEK 4,2007-01-12,12JAN2007,31,,Week 4,4,"Scale, Upper Extremities",SCUEX,10,,2,2,0,0,,23-36 DAYS,29,2,23,36,DAYS,,Y,,,,,2,2
BBC,BBC-10-149,149,10,74,ARM A,1,ARM A,1,Y,Y,Y,Y,13DEC2006,13MAR2007,6,WEEK 6,2007-01-26,26JAN2007,45,,Week 6,6,"Scale, Upper Extremities",SCUEX,10,,0,2,-2,-100,,37-50 DAYS,43,2,37,50,DAYS,,Y,,,,,0,2
BBC,BBC-10-149,149,10,75,ARM A,1,ARM A,1,Y,Y,Y,Y,13DEC2006,13MAR2007,8,WEEK 8,2007-02-12,12FEB2007,62,,Week 8,8,"Scale, Upper Extremities",SCUEX,10,,0,2,-2,-100,,51-71 DAYS,57,5,51,71,DAYS,,Y,,,,,0,2
BBC,BBC-10-149,149,10,76,ARM A,1,ARM A,1,Y,Y,Y,Y,13DEC2006,13MAR2007,12,WEEK 12,2007-03-13,13MAR2007,91,,Week 12,12,"Scale, Upper Extremities",SCUEX,10,,0,2,-2,-100,,72-99 DAYS,85,6,72,99,DAYS,,Y,,,,,0,2
BBC,BBC-10-149,149,10,77,ARM A,1,ARM A,1,Y,Y,Y,Y,13DEC2006,13MAR2007,16,WEEK 16,2007-04-16,16APR2007,125,,Week 16,16,"Scale, Upper Extremities",SCUEX,10,,0,2,-2,-100,,22-36 DAYS POST-LAST-DOSE,119,6,112,126,DAYS,,,,,,,0,2
BBC,BBC-10-149,149,10,43,ARM A,1,ARM A,1,Y,Y,Y,Y,13DEC2006,13MAR2007,1,DAY 1,2006-12-13,13DEC2006,1,,Day 1 Baseline,0,"Scale, Trunk",SCTRUNK,11,,0,0,,,,,,,,,,Y,Y,,,,,,0
BBC,BBC-10-149,149,10,44,ARM A,1,ARM A,1,Y,Y,Y,Y,13DEC2006,13MAR2007,2,WEEK 2,2006-12-29,29DEC2006,17,,Week 2,2,"Scale, Trunk",SCTRUNK,11,,0,0,0,,,8-22 DAYS,15,2,8,22,DAYS,,Y,,,,,0,0
BBC,BBC-10-149,149,10,45,ARM A,1,ARM A,1,Y,Y,Y,Y,13DEC2006,13MAR2007,4,WEEK 4,2007-01-12,12JAN2007,31,,Week 4,4,"Scale, Trunk",SCTRUNK,11,,0,0,0,,,23-36 DAYS,29,2,23,36,DAYS,,Y,,,,,0,0
BBC,BBC-10-149,149,10,46,ARM A,1,ARM A,1,Y,Y,Y,Y,13DEC2006,13MAR2007,6,WEEK 6,2007-01-26,26JAN2007,45,,Week 6,6,"Scale, Trunk",SCTRUNK,11,,0,0,0,,,37-50 DAYS,43,2,37,50,DAYS,,Y,,,,,0,0
BBC,BBC-10-149,149,10,47,ARM A,1,ARM A,1,Y,Y,Y,Y,13DEC2006,13MAR2007,8,WEEK 8,2007-02-12,12FEB2007,62,,Week 8,8,"Scale, Trunk",SCTRUNK,11,,0,0,0,,,51-71 DAYS,57,5,51,71,DAYS,,Y,,,,,0,0
BBC,BBC-10-149,149,10,48,ARM A,1,ARM A,1,Y,Y,Y,Y,13DEC2006,13MAR2007,12,WEEK 12,2007-03-13,13MAR2007,91,,Week 12,12,"Scale, Trunk",SCTRUNK,11,,0,0,0,,,72-99 DAYS,85,6,72,99,DAYS,,Y,,,,,0,0
BBC,BBC-10-149,149,10,49,ARM A,1,ARM A,1,Y,Y,Y,Y,13DEC2006,13MAR2007,16,WEEK 16,2007-04-16,16APR2007,125,,Week 16,16,"Scale, Trunk",SCTRUNK,11,,0,0,0,,,22-36 DAYS POST-LAST-DOSE,119,6,112,126,DAYS,,,,,,,0,0
BBC,BBC-10-149,149,10,15,ARM A,1,ARM A,1,Y,Y,Y,Y,13DEC2006,13MAR2007,1,DAY 1,2006-12-13,13DEC2006,1,,Day 1 Baseline,0,"Scale, Lower Extremities",SCLEX,12,,2,2,,,,,,,,,,Y,Y,,,,,,2
BBC,BBC-10-149,149,10,16,ARM A,1,ARM A,1,Y,Y,Y,Y,13DEC2006,13MAR2007,2,WEEK 2,2006-12-29,29DEC2006,17,,Week 2,2,"Scale, Lower Extremities",SCLEX,12,,2,2,0,0,,8-22 DAYS,15,2,8,22,DAYS,,Y,,,,,2,2
BBC,BBC-10-149,149,10,17,ARM A,1,ARM A,1,Y,Y,Y,Y,13DEC2006,13MAR2007,4,WEEK 4,2007-01-12,12JAN2007,31,,Week 4,4,"Scale, Lower Extremities",SCLEX,12,,2,2,0,0,,23-36 DAYS,29,2,23,36,DAYS,,Y,,,,,2,2
BBC,BBC-10-149,149,10,18,ARM A,1,ARM A,1,Y,Y,Y,Y,13DEC2006,13MAR2007,6,WEEK 6,2007-01-26,26JAN2007,45,,Week 6,6,"Scale, Lower Extremities",SCLEX,12,,2,2,0,0,,37-50 DAYS,43,2,37,50,DAYS,,Y,,,,,2,2
BBC,BBC-10-149,149,10,19,ARM A,1,ARM A,1,Y,Y,Y,Y,13DEC2006,13MAR2007,8,WEEK 8,2007-02-12,12FEB2007,62,,Week 8,8,"Scale, Lower Extremities",SCLEX,12,,1,2,-1,-50,,51-71 DAYS,57,5,51,71,DAYS,,Y,,,,,1,2
BBC,BBC-10-149,149,10,20,ARM A,1,ARM A,1,Y,Y,Y,Y,13DEC2006,13MAR2007,12,WEEK 12,2007-03-13,13MAR2007,91,,Week 12,12,"Scale, Lower Extremities",SCLEX,12,,0,2,-2,-100,,72-99 DAYS,85,6,72,99,DAYS,,Y,,,,,0,2
BBC,BBC-10-149,149,10,21,ARM A,1,ARM A,1,Y,Y,Y,Y,13DEC2006,13MAR2007,16,WEEK 16,2007-04-16,16APR2007,125,,Week 16,16,"Scale, Lower Extremities",SCLEX,12,,1,2,-1,-50,,22-36 DAYS POST-LAST-DOSE,119,6,112,126,DAYS,,,,,,,1,2
BBC,BBC-10-149,149,10,78,ARM A,1,ARM A,1,Y,Y,Y,Y,13DEC2006,13MAR2007,1,DAY 1,2006-12-13,13DEC2006,1,,Day 1 Baseline,0,Area Adjusted Psoriasis Area and Severity Index,PASISCOR,13,DERIVED,3.9,3.9,,,,,,,,,,Y,Y,,,,,,3.9
BBC,BBC-10-149,149,10,79,ARM A,1,ARM A,1,Y,Y,Y,Y,13DEC2006,13MAR2007,2,WEEK 2,2006-12-29,29DEC2006,17,,Week 2,2,Area Adjusted Psoriasis Area and Severity Index,PASISCOR,13,DERIVED,3.9,3.9,0,0,,8-22 DAYS,15,2,8,22,DAYS,,Y,,,,,3.9,3.9
BBC,BBC-10-149,149,10,80,ARM A,1,ARM A,1,Y,Y,Y,Y,13DEC2006,13MAR2007,4,WEEK 4,2007-01-12,12JAN2007,31,,Week 4,4,Area Adjusted Psoriasis Area and Severity Index,PASISCOR,13,DERIVED,3.3,3.9,-0.6,-15.4,,23-36 DAYS,29,2,23,36,DAYS,,Y,,,,,3.3,3.9
BBC,BBC-10-149,149,10,81,ARM A,1,ARM A,1,Y,Y,Y,Y,13DEC2006,13MAR2007,6,WEEK 6,2007-01-26,26JAN2007,45,,Week 6,6,Area Adjusted Psoriasis Area and Severity Index,PASISCOR,13,DERIVED,1.3,3.9,-2.6,-66.7,,37-50 DAYS,43,2,37,50,DAYS,,Y,,,Improvement in AAPASI score from baseline of at least 50%,Y,1.3,3.9
BBC,BBC-10-149,149,10,82,ARM A,1,ARM A,1,Y,Y,Y,Y,13DEC2006,13MAR2007,8,WEEK 8,2007-02-12,12FEB2007,62,,Week 8,8,Area Adjusted Psoriasis Area and Severity Index,PASISCOR,13,DERIVED,0.9,3.9,-3,-76.9,,51-71 DAYS,57,5,51,71,DAYS,,Y,Improvement in AAPASI score from baseline of at least 75%,Y,Improvement in AAPASI score from baseline of at least 50%,Y,0.9,3.9
BBC,BBC-10-149,149,10,83,ARM A,1,ARM A,1,Y,Y,Y,Y,13DEC2006,13MAR2007,12,WEEK 12,2007-03-13,13MAR2007,91,,Week 12,12,Area Adjusted Psoriasis Area and Severity Index,PASISCOR,13,DERIVED,0,3.9,-3.9,-100,,72-99 DAYS,85,6,72,99,DAYS,,Y,Improvement in AAPASI score from baseline of at least 75%,Y,Improvement in AAPASI score from baseline of at least 50%,Y,0,3.9
BBC,BBC-10-149,149,10,84,ARM A,1,ARM A,1,Y,Y,Y,Y,13DEC2006,13MAR2007,16,WEEK 16,2007-04-16,16APR2007,125,,Week 16,16,Area Adjusted Psoriasis Area and Severity Index,PASISCOR,13,DERIVED,0.4,3.9,-3.5,-89.7,,22-36 DAYS POST-LAST-DOSE,119,6,112,126,DAYS,,,Improvement in AAPASI score from baseline of at least 75%,Y,Improvement in AAPASI score from baseline of at least 50%,Y,0.4,3.9
BBC,BBC-10-150,150,10,57,ARM D,4,ARM D,4,Y,Y,Y,Y,14DEC2006,13MAR2007,1,DAY 1,2006-12-14,14DEC2006,1,,Day 1 Baseline,0,"Area Score, Upper Extremities",ASUEX,1,,1,1,,,,,,,,,,Y,Y,,,,,,1
BBC,BBC-10-150,150,10,58,ARM D,4,ARM D,4,Y,Y,Y,Y,14DEC2006,13MAR2007,2,WEEK 2,2007-01-04,04JAN2007,22,,Week 2,2,"Area Score, Upper Extremities",ASUEX,1,,1,1,0,0,,8-22 DAYS,15,7,8,22,DAYS,,Y,,,,,1,1
BBC,BBC-10-150,150,10,59,ARM D,4,ARM D,4,Y,Y,Y,Y,14DEC2006,13MAR2007,4,WEEK 4,2007-01-16,16JAN2007,34,,Week 4,4,"Area Score, Upper Extremities",ASUEX,1,,1,1,0,0,,23-36 DAYS,29,5,23,36,DAYS,,Y,,,,,1,1
BBC,BBC-10-150,150,10,60,ARM D,4,ARM D,4,Y,Y,Y,Y,14DEC2006,13MAR2007,6,WEEK 6,2007-01-30,30JAN2007,48,,Week 6,6,"Area Score, Upper Extremities",ASUEX,1,,1,1,0,0,,37-50 DAYS,43,5,37,50,DAYS,,Y,,,,,1,1
BBC,BBC-10-150,150,10,61,ARM D,4,ARM D,4,Y,Y,Y,Y,14DEC2006,13MAR2007,8,WEEK 8,2007-02-07,07FEB2007,56,,Week 8,8,"Area Score, Upper Extremities",ASUEX,1,,1,1,0,0,,51-71 DAYS,57,1,51,71,DAYS,,Y,,,,,1,1
BBC,BBC-10-150,150,10,62,ARM D,4,ARM D,4,Y,Y,Y,Y,14DEC2006,13MAR2007,12,WEEK 12,2007-03-13,13MAR2007,90,,Week 12,12,"Area Score, Upper Extremities",ASUEX,1,,1,1,0,0,,72-99 DAYS,85,5,72,99,DAYS,,Y,,,,,1,1
BBC,BBC-10-150,150,10,63,ARM D,4,ARM D,4,Y,Y,Y,Y,14DEC2006,13MAR2007,16,WEEK 16,2007-04-17,17APR2007,125,,Week 16,16,"Area Score, Upper Extremities",ASUEX,1,,1,1,0,0,,22-36 DAYS POST-LAST-DOSE,118,7,111,125,DAYS,,,,,,,1,1
BBC,BBC-10-150,150,10,29,ARM D,4,ARM D,4,Y,Y,Y,Y,14DEC2006,13MAR2007,1,DAY 1,2006-12-14,14DEC2006,1,,Day 1 Baseline,0,"Area Score, Trunk",ASTRUNK,2,,1,1,,,,,,,,,,Y,Y,,,,,,1
BBC,BBC-10-150,150,10,30,ARM D,4,ARM D,4,Y,Y,Y,Y,14DEC2006,13MAR2007,2,WEEK 2,2007-01-04,04JAN2007,22,,Week 2,2,"Area Score, Trunk",ASTRUNK,2,,1,1,0,0,,8-22 DAYS,15,7,8,22,DAYS,,Y,,,,,1,1
BBC,BBC-10-150,150,10,31,ARM D,4,ARM D,4,Y,Y,Y,Y,14DEC2006,13MAR2007,4,WEEK 4,2007-01-16,16JAN2007,34,,Week 4,4,"Area Score, Trunk",ASTRUNK,2,,1,1,0,0,,23-36 DAYS,29,5,23,36,DAYS,,Y,,,,,1,1
BBC,BBC-10-150,150,10,32,ARM D,4,ARM D,4,Y,Y,Y,Y,14DEC2006,13MAR2007,6,WEEK 6,2007-01-30,30JAN2007,48,,Week 6,6,"Area Score, Trunk",ASTRUNK,2,,1,1,0,0,,37-50 DAYS,43,5,37,50,DAYS,,Y,,,,,1,1
BBC,BBC-10-150,150,10,33,ARM D,4,ARM D,4,Y,Y,Y,Y,14DEC2006,13MAR2007,8,WEEK 8,2007-02-07,07FEB2007,56,,Week 8,8,"Area Score, Trunk",ASTRUNK,2,,1,1,0,0,,51-71 DAYS,57,1,51,71,DAYS,,Y,,,,,1,1
BBC,BBC-10-150,150,10,34,ARM D,4,ARM D,4,Y,Y,Y,Y,14DEC2006,13MAR2007,12,WEEK 12,2007-03-13,13MAR2007,90,,Week 12,12,"Area Score, Trunk",ASTRUNK,2,,1,1,0,0,,72-99 DAYS,85,5,72,99,DAYS,,Y,,,,,1,1
BBC,BBC-10-150,150,10,35,ARM D,4,ARM D,4,Y,Y,Y,Y,14DEC2006,13MAR2007,16,WEEK 16,2007-04-17,17APR2007,125,,Week 16,16,"Area Score, Trunk",ASTRUNK,2,,1,1,0,0,,22-36 DAYS POST-LAST-DOSE,118,7,111,125,DAYS,,,,,,,1,1
BBC,BBC-10-150,150,10,1,ARM D,4,ARM D,4,Y,Y,Y,Y,14DEC2006,13MAR2007,1,DAY 1,2006-12-14,14DEC2006,1,,Day 1 Baseline,0,"Area Score, Lower Extremities",ASLEX,3,,1,1,,,,,,,,,,Y,Y,,,,,,1
BBC,BBC-10-150,150,10,2,ARM D,4,ARM D,4,Y,Y,Y,Y,14DEC2006,13MAR2007,2,WEEK 2,2007-01-04,04JAN2007,22,,Week 2,2,"Area Score, Lower Extremities",ASLEX,3,,1,1,0,0,,8-22 DAYS,15,7,8,22,DAYS,,Y,,,,,1,1
BBC,BBC-10-150,150,10,3,ARM D,4,ARM D,4,Y,Y,Y,Y,14DEC2006,13MAR2007,4,WEEK 4,2007-01-16,16JAN2007,34,,Week 4,4,"Area Score, Lower Extremities",ASLEX,3,,1,1,0,0,,23-36 DAYS,29,5,23,36,DAYS,,Y,,,,,1,1
BBC,BBC-10-150,150,10,4,ARM D,4,ARM D,4,Y,Y,Y,Y,14DEC2006,13MAR2007,6,WEEK 6,2007-01-30,30JAN2007,48,,Week 6,6,"Area Score, Lower Extremities",ASLEX,3,,1,1,0,0,,37-50 DAYS,43,5,37,50,DAYS,,Y,,,,,1,1
BBC,BBC-10-150,150,10,5,ARM D,4,ARM D,4,Y,Y,Y,Y,14DEC2006,13MAR2007,8,WEEK 8,2007-02-07,07FEB2007,56,,Week 8,8,"Area Score, Lower Extremities",ASLEX,3,,1,1,0,0,,51-71 DAYS,57,1,51,71,DAYS,,Y,,,,,1,1
BBC,BBC-10-150,150,10,6,ARM D,4,ARM D,4,Y,Y,Y,Y,14DEC2006,13MAR2007,12,WEEK 12,2007-03-13,13MAR2007,90,,Week 12,12,"Area Score, Lower Extremities",ASLEX,3,,1,1,0,0,,72-99 DAYS,85,5,72,99,DAYS,,Y,,,,,1,1
BBC,BBC-10-150,150,10,7,ARM D,4,ARM D,4,Y,Y,Y,Y,14DEC2006,13MAR2007,16,WEEK 16,2007-04-17,17APR2007,125,,Week 16,16,"Area Score, Lower Extremities",ASLEX,3,,1,1,0,0,,22-36 DAYS POST-LAST-DOSE,118,7,111,125,DAYS,,,,,,,1,1
BBC,BBC-10-150,150,10,64,ARM D,4,ARM D,4,Y,Y,Y,Y,14DEC2006,13MAR2007,1,DAY 1,2006-12-14,14DEC2006,1,,Day 1 Baseline,0,"Erythema, Upper Extremities",ERUEX,4,,3,3,,,,,,,,,,Y,Y,,,,,,3
BBC,BBC-10-150,150,10,65,ARM D,4,ARM D,4,Y,Y,Y,Y,14DEC2006,13MAR2007,2,WEEK 2,2007-01-04,04JAN2007,22,,Week 2,2,"Erythema, Upper Extremities",ERUEX,4,,3,3,0,0,,8-22 DAYS,15,7,8,22,DAYS,,Y,,,,,3,3
BBC,BBC-10-150,150,10,66,ARM D,4,ARM D,4,Y,Y,Y,Y,14DEC2006,13MAR2007,4,WEEK 4,2007-01-16,16JAN2007,34,,Week 4,4,"Erythema, Upper Extremities",ERUEX,4,,4,3,1,33.3,,23-36 DAYS,29,5,23,36,DAYS,,Y,,,,,4,3
BBC,BBC-10-150,150,10,67,ARM D,4,ARM D,4,Y,Y,Y,Y,14DEC2006,13MAR2007,6,WEEK 6,2007-01-30,30JAN2007,48,,Week 6,6,"Erythema, Upper Extremities",ERUEX,4,,3,3,0,0,,37-50 DAYS,43,5,37,50,DAYS,,Y,,,,,3,3
BBC,BBC-10-150,150,10,68,ARM D,4,ARM D,4,Y,Y,Y,Y,14DEC2006,13MAR2007,8,WEEK 8,2007-02-07,07FEB2007,56,,Week 8,8,"Erythema, Upper Extremities",ERUEX,4,,3,3,0,0,,51-71 DAYS,57,1,51,71,DAYS,,Y,,,,,3,3
BBC,BBC-10-150,150,10,69,ARM D,4,ARM D,4,Y,Y,Y,Y,14DEC2006,13MAR2007,12,WEEK 12,2007-03-13,13MAR2007,90,,Week 12,12,"Erythema, Upper Extremities",ERUEX,4,,3,3,0,0,,72-99 DAYS,85,5,72,99,DAYS,,Y,,,,,3,3
BBC,BBC-10-150,150,10,70,ARM D,4,ARM D,4,Y,Y,Y,Y,14DEC2006,13MAR2007,16,WEEK 16,2007-04-17,17APR2007,125,,Week 16,16,"Erythema, Upper Extremities",ERUEX,4,,2,3,-1,-33.3,,22-36 DAYS POST-LAST-DOSE,118,7,111,125,DAYS,,,,,,,2,3
BBC,BBC-10-150,150,10,36,ARM D,4,ARM D,4,Y,Y,Y,Y,14DEC2006,13MAR2007,1,DAY 1,2006-12-14,14DEC2006,1,,Day 1 Baseline,0,"Erythema, Trunk",ERTRUNK,5,,3,3,,,,,,,,,,Y,Y,,,,,,3
BBC,BBC-10-150,150,10,37,ARM D,4,ARM D,4,Y,Y,Y,Y,14DEC2006,13MAR2007,2,WEEK 2,2007-01-04,04JAN2007,22,,Week 2,2,"Erythema, Trunk",ERTRUNK,5,,3,3,0,0,,8-22 DAYS,15,7,8,22,DAYS,,Y,,,,,3,3
BBC,BBC-10-150,150,10,38,ARM D,4,ARM D,4,Y,Y,Y,Y,14DEC2006,13MAR2007,4,WEEK 4,2007-01-16,16JAN2007,34,,Week 4,4,"Erythema, Trunk",ERTRUNK,5,,4,3,1,33.3,,23-36 DAYS,29,5,23,36,DAYS,,Y,,,,,4,3
BBC,BBC-10-150,150,10,39,ARM D,4,ARM D,4,Y,Y,Y,Y,14DEC2006,13MAR2007,6,WEEK 6,2007-01-30,30JAN2007,48,,Week 6,6,"Erythema, Trunk",ERTRUNK,5,,3,3,0,0,,37-50 DAYS,43,5,37,50,DAYS,,Y,,,,,3,3
BBC,BBC-10-150,150,10,40,ARM D,4,ARM D,4,Y,Y,Y,Y,14DEC2006,13MAR2007,8,WEEK 8,2007-02-07,07FEB2007,56,,Week 8,8,"Erythema, Trunk",ERTRUNK,5,,3,3,0,0,,51-71 DAYS,57,1,51,71,DAYS,,Y,,,,,3,3
BBC,BBC-10-150,150,10,41,ARM D,4,ARM D,4,Y,Y,Y,Y,14DEC2006,13MAR2007,12,WEEK 12,2007-03-13,13MAR2007,90,,Week 12,12,"Erythema, Trunk",ERTRUNK,5,,3,3,0,0,,72-99 DAYS,85,5,72,99,DAYS,,Y,,,,,3,3
BBC,BBC-10-150,150,10,42,ARM D,4,ARM D,4,Y,Y,Y,Y,14DEC2006,13MAR2007,16,WEEK 16,2007-04-17,17APR2007,125,,Week 16,16,"Erythema, Trunk",ERTRUNK,5,,3,3,0,0,,22-36 DAYS POST-LAST-DOSE,118,7,111,125,DAYS,,,,,,,3,3
BBC,BBC-10-150,150,10,8,ARM D,4,ARM D,4,Y,Y,Y,Y,14DEC2006,13MAR2007,1,DAY 1,2006-12-14,14DEC2006,1,,Day 1 Baseline,0,"Erythema, Lower Extremities",ERLEX,6,,3,3,,,,,,,,,,Y,Y,,,,,,3
BBC,BBC-10-150,150,10,9,ARM D,4,ARM D,4,Y,Y,Y,Y,14DEC2006,13MAR2007,2,WEEK 2,2007-01-04,04JAN2007,22,,Week 2,2,"Erythema, Lower Extremities",ERLEX,6,,3,3,0,0,,8-22 DAYS,15,7,8,22,DAYS,,Y,,,,,3,3
BBC,BBC-10-150,150,10,10,ARM D,4,ARM D,4,Y,Y,Y,Y,14DEC2006,13MAR2007,4,WEEK 4,2007-01-16,16JAN2007,34,,Week 4,4,"Erythema, Lower Extremities",ERLEX,6,,3,3,0,0,,23-36 DAYS,29,5,23,36,DAYS,,Y,,,,,3,3
BBC,BBC-10-150,150,10,11,ARM D,4,ARM D,4,Y,Y,Y,Y,14DEC2006,13MAR2007,6,WEEK 6,2007-01-30,30JAN2007,48,,Week 6,6,"Erythema, Lower Extremities",ERLEX,6,,3,3,0,0,,37-50 DAYS,43,5,37,50,DAYS,,Y,,,,,3,3
BBC,BBC-10-150,150,10,12,ARM D,4,ARM D,4,Y,Y,Y,Y,14DEC2006,13MAR2007,8,WEEK 8,2007-02-07,07FEB2007,56,,Week 8,8,"Erythema, Lower Extremities",ERLEX,6,,3,3,0,0,,51-71 DAYS,57,1,51,71,DAYS,,Y,,,,,3,3
BBC,BBC-10-150,150,10,13,ARM D,4,ARM D,4,Y,Y,Y,Y,14DEC2006,13MAR2007,12,WEEK 12,2007-03-13,13MAR2007,90,,Week 12,12,"Erythema, Lower Extremities",ERLEX,6,,3,3,0,0,,72-99 DAYS,85,5,72,99,DAYS,,Y,,,,,3,3
BBC,BBC-10-150,150,10,14,ARM D,4,ARM D,4,Y,Y,Y,Y,14DEC2006,13MAR2007,16,WEEK 16,2007-04-17,17APR2007,125,,Week 16,16,"Erythema, Lower Extremities",ERLEX,6,,3,3,0,0,,22-36 DAYS POST-LAST-DOSE,118,7,111,125,DAYS,,,,,,,3,3
BBC,BBC-10-150,150,10,78,ARM D,4,ARM D,4,Y,Y,Y,Y,14DEC2006,13MAR2007,1,DAY 1,2006-12-14,14DEC2006,1,,Day 1 Baseline,0,"Thickness, Upper Extremities",THKUEX,7,,2,2,,,,,,,,,,Y,Y,,,,,,2
BBC,BBC-10-150,150,10,79,ARM D,4,ARM D,4,Y,Y,Y,Y,14DEC2006,13MAR2007,2,WEEK 2,2007-01-04,04JAN2007,22,,Week 2,2,"Thickness, Upper Extremities",THKUEX,7,,3,2,1,50,,8-22 DAYS,15,7,8,22,DAYS,,Y,,,,,3,2
BBC,BBC-10-150,150,10,80,ARM D,4,ARM D,4,Y,Y,Y,Y,14DEC2006,13MAR2007,4,WEEK 4,2007-01-16,16JAN2007,34,,Week 4,4,"Thickness, Upper Extremities",THKUEX,7,,3,2,1,50,,23-36 DAYS,29,5,23,36,DAYS,,Y,,,,,3,2
BBC,BBC-10-150,150,10,81,ARM D,4,ARM D,4,Y,Y,Y,Y,14DEC2006,13MAR2007,6,WEEK 6,2007-01-30,30JAN2007,48,,Week 6,6,"Thickness, Upper Extremities",THKUEX,7,,4,2,2,100,,37-50 DAYS,43,5,37,50,DAYS,,Y,,,,,4,2
BBC,BBC-10-150,150,10,82,ARM D,4,ARM D,4,Y,Y,Y,Y,14DEC2006,13MAR2007,8,WEEK 8,2007-02-07,07FEB2007,56,,Week 8,8,"Thickness, Upper Extremities",THKUEX,7,,3,2,1,50,,51-71 DAYS,57,1,51,71,DAYS,,Y,,,,,3,2
BBC,BBC-10-150,150,10,83,ARM D,4,ARM D,4,Y,Y,Y,Y,14DEC2006,13MAR2007,12,WEEK 12,2007-03-13,13MAR2007,90,,Week 12,12,"Thickness, Upper Extremities",THKUEX,7,,4,2,2,100,,72-99 DAYS,85,5,72,99,DAYS,,Y,,,,,4,2
BBC,BBC-10-150,150,10,84,ARM D,4,ARM D,4,Y,Y,Y,Y,14DEC2006,13MAR2007,16,WEEK 16,2007-04-17,17APR2007,125,,Week 16,16,"Thickness, Upper Extremities",THKUEX,7,,1,2,-1,-50,,22-36 DAYS POST-LAST-DOSE,118,7,111,125,DAYS,,,,,,,1,2
BBC,BBC-10-150,150,10,50,ARM D,4,ARM D,4,Y,Y,Y,Y,14DEC2006,13MAR2007,1,DAY 1,2006-12-14,14DEC2006,1,,Day 1 Baseline,0,"Thickness, Trunk",THKTRUNK,8,,2,2,,,,,,,,,,Y,Y,,,,,,2
BBC,BBC-10-150,150,10,51,ARM D,4,ARM D,4,Y,Y,Y,Y,14DEC2006,13MAR2007,2,WEEK 2,2007-01-04,04JAN2007,22,,Week 2,2,"Thickness, Trunk",THKTRUNK,8,,3,2,1,50,,8-22 DAYS,15,7,8,22,DAYS,,Y,,,,,3,2
BBC,BBC-10-150,150,10,52,ARM D,4,ARM D,4,Y,Y,Y,Y,14DEC2006,13MAR2007,4,WEEK 4,2007-01-16,16JAN2007,34,,Week 4,4,"Thickness, Trunk",THKTRUNK,8,,3,2,1,50,,23-36 DAYS,29,5,23,36,DAYS,,Y,,,,,3,2
BBC,BBC-10-150,150,10,53,ARM D,4,ARM D,4,Y,Y,Y,Y,14DEC2006,13MAR2007,6,WEEK 6,2007-01-30,30JAN2007,48,,Week 6,6,"Thickness, Trunk",THKTRUNK,8,,2,2,0,0,,37-50 DAYS,43,5,37,50,DAYS,,Y,,,,,2,2
BBC,BBC-10-150,150,10,54,ARM D,4,ARM D,4,Y,Y,Y,Y,14DEC2006,13MAR2007,8,WEEK 8,2007-02-07,07FEB2007,56,,Week 8,8,"Thickness, Trunk",THKTRUNK,8,,3,2,1,50,,51-71 DAYS,57,1,51,71,DAYS,,Y,,,,,3,2
BBC,BBC-10-150,150,10,55,ARM D,4,ARM D,4,Y,Y,Y,Y,14DEC2006,13MAR2007,12,WEEK 12,2007-03-13,13MAR2007,90,,Week 12,12,"Thickness, Trunk",THKTRUNK,8,,4,2,2,100,,72-99 DAYS,85,5,72,99,DAYS,,Y,,,,,4,2
BBC,BBC-10-150,150,10,56,ARM D,4,ARM D,4,Y,Y,Y,Y,14DEC2006,13MAR2007,16,WEEK 16,2007-04-17,17APR2007,125,,Week 16,16,"Thickness, Trunk",THKTRUNK,8,,3,2,1,50,,22-36 DAYS POST-LAST-DOSE,118,7,111,125,DAYS,,,,,,,3,2
BBC,BBC-10-150,150,10,22,ARM D,4,ARM D,4,Y,Y,Y,Y,14DEC2006,13MAR2007,1,DAY 1,2006-12-14,14DEC2006,1,,Day 1 Baseline,0,"Thickness, Lower Extremities",THKLEX,9,,2,2,,,,,,,,,,Y,Y,,,,,,2
BBC,BBC-10-150,150,10,23,ARM D,4,ARM D,4,Y,Y,Y,Y,14DEC2006,13MAR2007,2,WEEK 2,2007-01-04,04JAN2007,22,,Week 2,2,"Thickness, Lower Extremities",THKLEX,9,,2,2,0,0,,8-22 DAYS,15,7,8,22,DAYS,,Y,,,,,2,2
BBC,BBC-10-150,150,10,24,ARM D,4,ARM D,4,Y,Y,Y,Y,14DEC2006,13MAR2007,4,WEEK 4,2007-01-16,16JAN2007,34,,Week 4,4,"Thickness, Lower Extremities",THKLEX,9,,2,2,0,0,,23-36 DAYS,29,5,23,36,DAYS,,Y,,,,,2,2
BBC,BBC-10-150,150,10,25,ARM D,4,ARM D,4,Y,Y,Y,Y,14DEC2006,13MAR2007,6,WEEK 6,2007-01-30,30JAN2007,48,,Week 6,6,"Thickness, Lower Extremities",THKLEX,9,,2,2,0,0,,37-50 DAYS,43,5,37,50,DAYS,,Y,,,,,2,2
BBC,BBC-10-150,150,10,26,ARM D,4,ARM D,4,Y,Y,Y,Y,14DEC2006,13MAR2007,8,WEEK 8,2007-02-07,07FEB2007,56,,Week 8,8,"Thickness, Lower Extremities",THKLEX,9,,2,2,0,0,,51-71 DAYS,57,1,51,71,DAYS,,Y,,,,,2,2
BBC,BBC-10-150,150,10,27,ARM D,4,ARM D,4,Y,Y,Y,Y,14DEC2006,13MAR2007,12,WEEK 12,2007-03-13,13MAR2007,90,,Week 12,12,"Thickness, Lower Extremities",THKLEX,9,,4,2,2,100,,72-99 DAYS,85,5,72,99,DAYS,,Y,,,,,4,2
BBC,BBC-10-150,150,10,28,ARM D,4,ARM D,4,Y,Y,Y,Y,14DEC2006,13MAR2007,16,WEEK 16,2007-04-17,17APR2007,125,,Week 16,16,"Thickness, Lower Extremities",THKLEX,9,,3,2,1,50,,22-36 DAYS POST-LAST-DOSE,118,7,111,125,DAYS,,,,,,,3,2
BBC,BBC-10-150,150,10,71,ARM D,4,ARM D,4,Y,Y,Y,Y,14DEC2006,13MAR2007,1,DAY 1,2006-12-14,14DEC2006,1,,Day 1 Baseline,0,"Scale, Upper Extremities",SCUEX,10,,3,3,,,,,,,,,,Y,Y,,,,,,3
BBC,BBC-10-150,150,10,72,ARM D,4,ARM D,4,Y,Y,Y,Y,14DEC2006,13MAR2007,2,WEEK 2,2007-01-04,04JAN2007,22,,Week 2,2,"Scale, Upper Extremities",SCUEX,10,,3,3,0,0,,8-22 DAYS,15,7,8,22,DAYS,,Y,,,,,3,3
BBC,BBC-10-150,150,10,73,ARM D,4,ARM D,4,Y,Y,Y,Y,14DEC2006,13MAR2007,4,WEEK 4,2007-01-16,16JAN2007,34,,Week 4,4,"Scale, Upper Extremities",SCUEX,10,,4,3,1,33.3,,23-36 DAYS,29,5,23,36,DAYS,,Y,,,,,4,3
BBC,BBC-10-150,150,10,74,ARM D,4,ARM D,4,Y,Y,Y,Y,14DEC2006,13MAR2007,6,WEEK 6,2007-01-30,30JAN2007,48,,Week 6,6,"Scale, Upper Extremities",SCUEX,10,,4,3,1,33.3,,37-50 DAYS,43,5,37,50,DAYS,,Y,,,,,4,3
BBC,BBC-10-150,150,10,75,ARM D,4,ARM D,4,Y,Y,Y,Y,14DEC2006,13MAR2007,8,WEEK 8,2007-02-07,07FEB2007,56,,Week 8,8,"Scale, Upper Extremities",SCUEX,10,,3,3,0,0,,51-71 DAYS,57,1,51,71,DAYS,,Y,,,,,3,3
BBC,BBC-10-150,150,10,76,ARM D,4,ARM D,4,Y,Y,Y,Y,14DEC2006,13MAR2007,12,WEEK 12,2007-03-13,13MAR2007,90,,Week 12,12,"Scale, Upper Extremities",SCUEX,10,,3,3,0,0,,72-99 DAYS,85,5,72,99,DAYS,,Y,,,,,3,3
BBC,BBC-10-150,150,10,77,ARM D,4,ARM D,4,Y,Y,Y,Y,14DEC2006,13MAR2007,16,WEEK 16,2007-04-17,17APR2007,125,,Week 16,16,"Scale, Upper Extremities",SCUEX,10,,2,3,-1,-33.3,,22-36 DAYS POST-LAST-DOSE,118,7,111,125,DAYS,,,,,,,2,3
BBC,BBC-10-150,150,10,43,ARM D,4,ARM D,4,Y,Y,Y,Y,14DEC2006,13MAR2007,1,DAY 1,2006-12-14,14DEC2006,1,,Day 1 Baseline,0,"Scale, Trunk",SCTRUNK,11,,3,3,,,,,,,,,,Y,Y,,,,,,3
BBC,BBC-10-150,150,10,44,ARM D,4,ARM D,4,Y,Y,Y,Y,14DEC2006,13MAR2007,2,WEEK 2,2007-01-04,04JAN2007,22,,Week 2,2,"Scale, Trunk",SCTRUNK,11,,3,3,0,0,,8-22 DAYS,15,7,8,22,DAYS,,Y,,,,,3,3
BBC,BBC-10-150,150,10,45,ARM D,4,ARM D,4,Y,Y,Y,Y,14DEC2006,13MAR2007,4,WEEK 4,2007-01-16,16JAN2007,34,,Week 4,4,"Scale, Trunk",SCTRUNK,11,,4,3,1,33.3,,23-36 DAYS,29,5,23,36,DAYS,,Y,,,,,4,3
BBC,BBC-10-150,150,10,46,ARM D,4,ARM D,4,Y,Y,Y,Y,14DEC2006,13MAR2007,6,WEEK 6,2007-01-30,30JAN2007,48,,Week 6,6,"Scale, Trunk",SCTRUNK,11,,3,3,0,0,,37-50 DAYS,43,5,37,50,DAYS,,Y,,,,,3,3
BBC,BBC-10-150,150,10,47,ARM D,4,ARM D,4,Y,Y,Y,Y,14DEC2006,13MAR2007,8,WEEK 8,2007-02-07,07FEB2007,56,,Week 8,8,"Scale, Trunk",SCTRUNK,11,,3,3,0,0,,51-71 DAYS,57,1,51,71,DAYS,,Y,,,,,3,3
BBC,BBC-10-150,150,10,48,ARM D,4,ARM D,4,Y,Y,Y,Y,14DEC2006,13MAR2007,12,WEEK 12,2007-03-13,13MAR2007,90,,Week 12,12,"Scale, Trunk",SCTRUNK,11,,4,3,1,33.3,,72-99 DAYS,85,5,72,99,DAYS,,Y,,,,,4,3
BBC,BBC-10-150,150,10,49,ARM D,4,ARM D,4,Y,Y,Y,Y,14DEC2006,13MAR2007,16,WEEK 16,2007-04-17,17APR2007,125,,Week 16,16,"Scale, Trunk",SCTRUNK,11,,3,3,0,0,,22-36 DAYS POST-LAST-DOSE,118,7,111,125,DAYS,,,,,,,3,3
BBC,BBC-10-150,150,10,15,ARM D,4,ARM D,4,Y,Y,Y,Y,14DEC2006,13MAR2007,1,DAY 1,2006-12-14,14DEC2006,1,,Day 1 Baseline,0,"Scale, Lower Extremities",SCLEX,12,,3,3,,,,,,,,,,Y,Y,,,,,,3
BBC,BBC-10-150,150,10,16,ARM D,4,ARM D,4,Y,Y,Y,Y,14DEC2006,13MAR2007,2,WEEK 2,2007-01-04,04JAN2007,22,,Week 2,2,"Scale, Lower Extremities",SCLEX,12,,3,3,0,0,,8-22 DAYS,15,7,8,22,DAYS,,Y,,,,,3,3
BBC,BBC-10-150,150,10,17,ARM D,4,ARM D,4,Y,Y,Y,Y,14DEC2006,13MAR2007,4,WEEK 4,2007-01-16,16JAN2007,34,,Week 4,4,"Scale, Lower Extremities",SCLEX,12,,3,3,0,0,,23-36 DAYS,29,5,23,36,DAYS,,Y,,,,,3,3
BBC,BBC-10-150,150,10,18,ARM D,4,ARM D,4,Y,Y,Y,Y,14DEC2006,13MAR2007,6,WEEK 6,2007-01-30,30JAN2007,48,,Week 6,6,"Scale, Lower Extremities",SCLEX,12,,3,3,0,0,,37-50 DAYS,43,5,37,50,DAYS,,Y,,,,,3,3
BBC,BBC-10-150,150,10,19,ARM D,4,ARM D,4,Y,Y,Y,Y,14DEC2006,13MAR2007,8,WEEK 8,2007-02-07,07FEB2007,56,,Week 8,8,"Scale, Lower Extremities",SCLEX,12,,3,3,0,0,,51-71 DAYS,57,1,51,71,DAYS,,Y,,,,,3,3
BBC,BBC-10-150,150,10,20,ARM D,4,ARM D,4,Y,Y,Y,Y,14DEC2006,13MAR2007,12,WEEK 12,2007-03-13,13MAR2007,90,,Week 12,12,"Scale, Lower Extremities",SCLEX,12,,3,3,0,0,,72-99 DAYS,85,5,72,99,DAYS,,Y,,,,,3,3
BBC,BBC-10-150,150,10,21,ARM D,4,ARM D,4,Y,Y,Y,Y,14DEC2006,13MAR2007,16,WEEK 16,2007-04-17,17APR2007,125,,Week 16,16,"Scale, Lower Extremities",SCLEX,12,,3,3,0,0,,22-36 DAYS POST-LAST-DOSE,118,7,111,125,DAYS,,,,,,,3,3
BBC,BBC-10-150,150,10,78,ARM D,4,ARM D,4,Y,Y,Y,Y,14DEC2006,13MAR2007,1,DAY 1,2006-12-14,14DEC2006,1,,Day 1 Baseline,0,Area Adjusted Psoriasis Area and Severity Index,PASISCOR,13,DERIVED,8,8,,,,,,,,,,Y,Y,,,,,,8
BBC,BBC-10-150,150,10,79,ARM D,4,ARM D,4,Y,Y,Y,Y,14DEC2006,13MAR2007,2,WEEK 2,2007-01-04,04JAN2007,22,,Week 2,2,Area Adjusted Psoriasis Area and Severity Index,PASISCOR,13,DERIVED,8.6,8,0.6,7.5,,8-22 DAYS,15,7,8,22,DAYS,,Y,,,,,8.6,8
BBC,BBC-10-150,150,10,80,ARM D,4,ARM D,4,Y,Y,Y,Y,14DEC2006,13MAR2007,4,WEEK 4,2007-01-16,16JAN2007,34,,Week 4,4,Area Adjusted Psoriasis Area and Severity Index,PASISCOR,13,DERIVED,9.7,8,1.7,21.3,,23-36 DAYS,29,5,23,36,DAYS,,Y,,,,,9.7,8
BBC,BBC-10-150,150,10,81,ARM D,4,ARM D,4,Y,Y,Y,Y,14DEC2006,13MAR2007,6,WEEK 6,2007-01-30,30JAN2007,48,,Week 6,6,Area Adjusted Psoriasis Area and Severity Index,PASISCOR,13,DERIVED,8.6,8,0.6,7.5,,37-50 DAYS,43,5,37,50,DAYS,,Y,,,,,8.6,8
BBC,BBC-10-150,150,10,82,ARM D,4,ARM D,4,Y,Y,Y,Y,14DEC2006,13MAR2007,8,WEEK 8,2007-02-07,07FEB2007,56,,Week 8,8,Area Adjusted Psoriasis Area and Severity Index,PASISCOR,13,DERIVED,8.6,8,0.6,7.5,,51-71 DAYS,57,1,51,71,DAYS,,Y,,,,,8.6,8
BBC,BBC-10-150,150,10,83,ARM D,4,ARM D,4,Y,Y,Y,Y,14DEC2006,13MAR2007,12,WEEK 12,2007-03-13,13MAR2007,90,,Week 12,12,Area Adjusted Psoriasis Area and Severity Index,PASISCOR,13,DERIVED,10.4,8,2.4,30,,72-99 DAYS,85,5,72,99,DAYS,,Y,,,,,10.4,8
BBC,BBC-10-150,150,10,84,ARM D,4,ARM D,4,Y,Y,Y,Y,14DEC2006,13MAR2007,16,WEEK 16,2007-04-17,17APR2007,125,,Week 16,16,Area Adjusted Psoriasis Area and Severity Index,PASISCOR,13,DERIVED,8.2,8,0.2,2.5,,22-36 DAYS POST-LAST-DOSE,118,7,111,125,DAYS,,,,,,,8.2,8
BBC,BBC-10-151,151,10,57,ARM B,2,ARM B,2,Y,Y,Y,Y,28DEC2006,22MAR2007,1,DAY 1,2006-12-28,28DEC2006,1,,Day 1 Baseline,0,"Area Score, Upper Extremities",ASUEX,1,,1,1,,,,,,,,,,Y,Y,,,,,,1
BBC,BBC-10-151,151,10,58,ARM B,2,ARM B,2,Y,Y,Y,Y,28DEC2006,22MAR2007,2,WEEK 2,2007-01-12,12JAN2007,16,,Week 2,2,"Area Score, Upper Extremities",ASUEX,1,,1,1,0,0,,8-22 DAYS,15,1,8,22,DAYS,,Y,,,,,1,1
BBC,BBC-10-151,151,10,59,ARM B,2,ARM B,2,Y,Y,Y,Y,28DEC2006,22MAR2007,4,WEEK 4,2007-01-25,25JAN2007,29,,Week 4,4,"Area Score, Upper Extremities",ASUEX,1,,1,1,0,0,,23-36 DAYS,29,0,23,36,DAYS,,Y,,,,,1,1
BBC,BBC-10-151,151,10,60,ARM B,2,ARM B,2,Y,Y,Y,Y,28DEC2006,22MAR2007,6,WEEK 6,2007-02-08,08FEB2007,43,,Week 6,6,"Area Score, Upper Extremities",ASUEX,1,,1,1,0,0,,37-50 DAYS,43,0,37,50,DAYS,,Y,,,,,1,1
BBC,BBC-10-151,151,10,61,ARM B,2,ARM B,2,Y,Y,Y,Y,28DEC2006,22MAR2007,8,WEEK 8,2007-02-22,22FEB2007,57,,Week 8,8,"Area Score, Upper Extremities",ASUEX,1,,1,1,0,0,,51-71 DAYS,57,0,51,71,DAYS,,Y,,,,,1,1
BBC,BBC-10-151,151,10,62,ARM B,2,ARM B,2,Y,Y,Y,Y,28DEC2006,22MAR2007,12,WEEK 12,2007-03-22,22MAR2007,85,,Week 12,12,"Area Score, Upper Extremities",ASUEX,1,,1,1,0,0,,72-99 DAYS,85,0,72,99,DAYS,,Y,,,,,1,1
BBC,BBC-10-151,151,10,63,ARM B,2,ARM B,2,Y,Y,Y,Y,28DEC2006,22MAR2007,16,WEEK 16,2007-04-19,19APR2007,113,,Week 16,16,"Area Score, Upper Extremities",ASUEX,1,,1,1,0,0,,22-36 DAYS POST-LAST-DOSE,113,0,106,120,DAYS,,,,,,,1,1
BBC,BBC-10-151,151,10,29,ARM B,2,ARM B,2,Y,Y,Y,Y,28DEC2006,22MAR2007,1,DAY 1,2006-12-28,28DEC2006,1,,Day 1 Baseline,0,"Area Score, Trunk",ASTRUNK,2,,1,1,,,,,,,,,,Y,Y,,,,,,1
BBC,BBC-10-151,151,10,30,ARM B,2,ARM B,2,Y,Y,Y,Y,28DEC2006,22MAR2007,2,WEEK 2,2007-01-12,12JAN2007,16,,Week 2,2,"Area Score, Trunk",ASTRUNK,2,,1,1,0,0,,8-22 DAYS,15,1,8,22,DAYS,,Y,,,,,1,1
BBC,BBC-10-151,151,10,31,ARM B,2,ARM B,2,Y,Y,Y,Y,28DEC2006,22MAR2007,4,WEEK 4,2007-01-25,25JAN2007,29,,Week 4,4,"Area Score, Trunk",ASTRUNK,2,,1,1,0,0,,23-36 DAYS,29,0,23,36,DAYS,,Y,,,,,1,1
BBC,BBC-10-151,151,10,32,ARM B,2,ARM B,2,Y,Y,Y,Y,28DEC2006,22MAR2007,6,WEEK 6,2007-02-08,08FEB2007,43,,Week 6,6,"Area Score, Trunk",ASTRUNK,2,,1,1,0,0,,37-50 DAYS,43,0,37,50,DAYS,,Y,,,,,1,1
BBC,BBC-10-151,151,10,33,ARM B,2,ARM B,2,Y,Y,Y,Y,28DEC2006,22MAR2007,8,WEEK 8,2007-02-22,22FEB2007,57,,Week 8,8,"Area Score, Trunk",ASTRUNK,2,,1,1,0,0,,51-71 DAYS,57,0,51,71,DAYS,,Y,,,,,1,1
BBC,BBC-10-151,151,10,34,ARM B,2,ARM B,2,Y,Y,Y,Y,28DEC2006,22MAR2007,12,WEEK 12,2007-03-22,22MAR2007,85,,Week 12,12,"Area Score, Trunk",ASTRUNK,2,,1,1,0,0,,72-99 DAYS,85,0,72,99,DAYS,,Y,,,,,1,1
BBC,BBC-10-151,151,10,35,ARM B,2,ARM B,2,Y,Y,Y,Y,28DEC2006,22MAR2007,16,WEEK 16,2007-04-19,19APR2007,113,,Week 16,16,"Area Score, Trunk",ASTRUNK,2,,1,1,0,0,,22-36 DAYS POST-LAST-DOSE,113,0,106,120,DAYS,,,,,,,1,1
BBC,BBC-10-151,151,10,1,ARM B,2,ARM B,2,Y,Y,Y,Y,28DEC2006,22MAR2007,1,DAY 1,2006-12-28,28DEC2006,1,,Day 1 Baseline,0,"Area Score, Lower Extremities",ASLEX,3,,1,1,,,,,,,,,,Y,Y,,,,,,1
BBC,BBC-10-151,151,10,2,ARM B,2,ARM B,2,Y,Y,Y,Y,28DEC2006,22MAR2007,2,WEEK 2,2007-01-12,12JAN2007,16,,Week 2,2,"Area Score, Lower Extremities",ASLEX,3,,1,1,0,0,,8-22 DAYS,15,1,8,22,DAYS,,Y,,,,,1,1
BBC,BBC-10-151,151,10,3,ARM B,2,ARM B,2,Y,Y,Y,Y,28DEC2006,22MAR2007,4,WEEK 4,2007-01-25,25JAN2007,29,,Week 4,4,"Area Score, Lower Extremities",ASLEX,3,,1,1,0,0,,23-36 DAYS,29,0,23,36,DAYS,,Y,,,,,1,1
BBC,BBC-10-151,151,10,4,ARM B,2,ARM B,2,Y,Y,Y,Y,28DEC2006,22MAR2007,6,WEEK 6,2007-02-08,08FEB2007,43,,Week 6,6,"Area Score, Lower Extremities",ASLEX,3,,1,1,0,0,,37-50 DAYS,43,0,37,50,DAYS,,Y,,,,,1,1
BBC,BBC-10-151,151,10,5,ARM B,2,ARM B,2,Y,Y,Y,Y,28DEC2006,22MAR2007,8,WEEK 8,2007-02-22,22FEB2007,57,,Week 8,8,"Area Score, Lower Extremities",ASLEX,3,,1,1,0,0,,51-71 DAYS,57,0,51,71,DAYS,,Y,,,,,1,1
BBC,BBC-10-151,151,10,6,ARM B,2,ARM B,2,Y,Y,Y,Y,28DEC2006,22MAR2007,12,WEEK 12,2007-03-22,22MAR2007,85,,Week 12,12,"Area Score, Lower Extremities",ASLEX,3,,1,1,0,0,,72-99 DAYS,85,0,72,99,DAYS,,Y,,,,,1,1
BBC,BBC-10-151,151,10,7,ARM B,2,ARM B,2,Y,Y,Y,Y,28DEC2006,22MAR2007,16,WEEK 16,2007-04-19,19APR2007,113,,Week 16,16,"Area Score, Lower Extremities",ASLEX,3,,1,1,0,0,,22-36 DAYS POST-LAST-DOSE,113,0,106,120,DAYS,,,,,,,1,1
BBC,BBC-10-151,151,10,64,ARM B,2,ARM B,2,Y,Y,Y,Y,28DEC2006,22MAR2007,1,DAY 1,2006-12-28,28DEC2006,1,,Day 1 Baseline,0,"Erythema, Upper Extremities",ERUEX,4,,3,3,,,,,,,,,,Y,Y,,,,,,3
BBC,BBC-10-151,151,10,65,ARM B,2,ARM B,2,Y,Y,Y,Y,28DEC2006,22MAR2007,2,WEEK 2,2007-01-12,12JAN2007,16,,Week 2,2,"Erythema, Upper Extremities",ERUEX,4,,2,3,-1,-33.3,,8-22 DAYS,15,1,8,22,DAYS,,Y,,,,,2,3
BBC,BBC-10-151,151,10,66,ARM B,2,ARM B,2,Y,Y,Y,Y,28DEC2006,22MAR2007,4,WEEK 4,2007-01-25,25JAN2007,29,,Week 4,4,"Erythema, Upper Extremities",ERUEX,4,,2,3,-1,-33.3,,23-36 DAYS,29,0,23,36,DAYS,,Y,,,,,2,3
BBC,BBC-10-151,151,10,67,ARM B,2,ARM B,2,Y,Y,Y,Y,28DEC2006,22MAR2007,6,WEEK 6,2007-02-08,08FEB2007,43,,Week 6,6,"Erythema, Upper Extremities",ERUEX,4,,2,3,-1,-33.3,,37-50 DAYS,43,0,37,50,DAYS,,Y,,,,,2,3
BBC,BBC-10-151,151,10,68,ARM B,2,ARM B,2,Y,Y,Y,Y,28DEC2006,22MAR2007,8,WEEK 8,2007-02-22,22FEB2007,57,,Week 8,8,"Erythema, Upper Extremities",ERUEX,4,,2,3,-1,-33.3,,51-71 DAYS,57,0,51,71,DAYS,,Y,,,,,2,3
BBC,BBC-10-151,151,10,69,ARM B,2,ARM B,2,Y,Y,Y,Y,28DEC2006,22MAR2007,12,WEEK 12,2007-03-22,22MAR2007,85,,Week 12,12,"Erythema, Upper Extremities",ERUEX,4,,2,3,-1,-33.3,,72-99 DAYS,85,0,72,99,DAYS,,Y,,,,,2,3
BBC,BBC-10-151,151,10,70,ARM B,2,ARM B,2,Y,Y,Y,Y,28DEC2006,22MAR2007,16,WEEK 16,2007-04-19,19APR2007,113,,Week 16,16,"Erythema, Upper Extremities",ERUEX,4,,2,3,-1,-33.3,,22-36 DAYS POST-LAST-DOSE,113,0,106,120,DAYS,,,,,,,2,3
BBC,BBC-10-151,151,10,36,ARM B,2,ARM B,2,Y,Y,Y,Y,28DEC2006,22MAR2007,1,DAY 1,2006-12-28,28DEC2006,1,,Day 1 Baseline,0,"Erythema, Trunk",ERTRUNK,5,,3,3,,,,,,,,,,Y,Y,,,,,,3
BBC,BBC-10-151,151,10,37,ARM B,2,ARM B,2,Y,Y,Y,Y,28DEC2006,22MAR2007,2,WEEK 2,2007-01-12,12JAN2007,16,,Week 2,2,"Erythema, Trunk",ERTRUNK,5,,2,3,-1,-33.3,,8-22 DAYS,15,1,8,22,DAYS,,Y,,,,,2,3
BBC,BBC-10-151,151,10,38,ARM B,2,ARM B,2,Y,Y,Y,Y,28DEC2006,22MAR2007,4,WEEK 4,2007-01-25,25JAN2007,29,,Week 4,4,"Erythema, Trunk",ERTRUNK,5,,2,3,-1,-33.3,,23-36 DAYS,29,0,23,36,DAYS,,Y,,,,,2,3
BBC,BBC-10-151,151,10,39,ARM B,2,ARM B,2,Y,Y,Y,Y,28DEC2006,22MAR2007,6,WEEK 6,2007-02-08,08FEB2007,43,,Week 6,6,"Erythema, Trunk",ERTRUNK,5,,1,3,-2,-66.7,,37-50 DAYS,43,0,37,50,DAYS,,Y,,,,,1,3
BBC,BBC-10-151,151,10,40,ARM B,2,ARM B,2,Y,Y,Y,Y,28DEC2006,22MAR2007,8,WEEK 8,2007-02-22,22FEB2007,57,,Week 8,8,"Erythema, Trunk",ERTRUNK,5,,0,3,-3,-100,,51-71 DAYS,57,0,51,71,DAYS,,Y,,,,,0,3
BBC,BBC-10-151,151,10,41,ARM B,2,ARM B,2,Y,Y,Y,Y,28DEC2006,22MAR2007,12,WEEK 12,2007-03-22,22MAR2007,85,,Week 12,12,"Erythema, Trunk",ERTRUNK,5,,1,3,-2,-66.7,,72-99 DAYS,85,0,72,99,DAYS,,Y,,,,,1,3
BBC,BBC-10-151,151,10,42,ARM B,2,ARM B,2,Y,Y,Y,Y,28DEC2006,22MAR2007,16,WEEK 16,2007-04-19,19APR2007,113,,Week 16,16,"Erythema, Trunk",ERTRUNK,5,,1,3,-2,-66.7,,22-36 DAYS POST-LAST-DOSE,113,0,106,120,DAYS,,,,,,,1,3
BBC,BBC-10-151,151,10,8,ARM B,2,ARM B,2,Y,Y,Y,Y,28DEC2006,22MAR2007,1,DAY 1,2006-12-28,28DEC2006,1,,Day 1 Baseline,0,"Erythema, Lower Extremities",ERLEX,6,,3,3,,,,,,,,,,Y,Y,,,,,,3
BBC,BBC-10-151,151,10,9,ARM B,2,ARM B,2,Y,Y,Y,Y,28DEC2006,22MAR2007,2,WEEK 2,2007-01-12,12JAN2007,16,,Week 2,2,"Erythema, Lower Extremities",ERLEX,6,,3,3,0,0,,8-22 DAYS,15,1,8,22,DAYS,,Y,,,,,3,3
BBC,BBC-10-151,151,10,10,ARM B,2,ARM B,2,Y,Y,Y,Y,28DEC2006,22MAR2007,4,WEEK 4,2007-01-25,25JAN2007,29,,Week 4,4,"Erythema, Lower Extremities",ERLEX,6,,2,3,-1,-33.3,,23-36 DAYS,29,0,23,36,DAYS,,Y,,,,,2,3
BBC,BBC-10-151,151,10,11,ARM B,2,ARM B,2,Y,Y,Y,Y,28DEC2006,22MAR2007,6,WEEK 6,2007-02-08,08FEB2007,43,,Week 6,6,"Erythema, Lower Extremities",ERLEX,6,,3,3,0,0,,37-50 DAYS,43,0,37,50,DAYS,,Y,,,,,3,3
BBC,BBC-10-151,151,10,12,ARM B,2,ARM B,2,Y,Y,Y,Y,28DEC2006,22MAR2007,8,WEEK 8,2007-02-22,22FEB2007,57,,Week 8,8,"Erythema, Lower Extremities",ERLEX,6,,1,3,-2,-66.7,,51-71 DAYS,57,0,51,71,DAYS,,Y,,,,,1,3
BBC,BBC-10-151,151,10,13,ARM B,2,ARM B,2,Y,Y,Y,Y,28DEC2006,22MAR2007,12,WEEK 12,2007-03-22,22MAR2007,85,,Week 12,12,"Erythema, Lower Extremities",ERLEX,6,,2,3,-1,-33.3,,72-99 DAYS,85,0,72,99,DAYS,,Y,,,,,2,3
BBC,BBC-10-151,151,10,14,ARM B,2,ARM B,2,Y,Y,Y,Y,28DEC2006,22MAR2007,16,WEEK 16,2007-04-19,19APR2007,113,,Week 16,16,"Erythema, Lower Extremities",ERLEX,6,,3,3,0,0,,22-36 DAYS POST-LAST-DOSE,113,0,106,120,DAYS,,,,,,,3,3
BBC,BBC-10-151,151,10,78,ARM B,2,ARM B,2,Y,Y,Y,Y,28DEC2006,22MAR2007,1,DAY 1,2006-12-28,28DEC2006,1,,Day 1 Baseline,0,"Thickness, Upper Extremities",THKUEX,7,,3,3,,,,,,,,,,Y,Y,,,,,,3
BBC,BBC-10-151,151,10,79,ARM B,2,ARM B,2,Y,Y,Y,Y,28DEC2006,22MAR2007,2,WEEK 2,2007-01-12,12JAN2007,16,,Week 2,2,"Thickness, Upper Extremities",THKUEX,7,,3,3,0,0,,8-22 DAYS,15,1,8,22,DAYS,,Y,,,,,3,3
BBC,BBC-10-151,151,10,80,ARM B,2,ARM B,2,Y,Y,Y,Y,28DEC2006,22MAR2007,4,WEEK 4,2007-01-25,25JAN2007,29,,Week 4,4,"Thickness, Upper Extremities",THKUEX,7,,3,3,0,0,,23-36 DAYS,29,0,23,36,DAYS,,Y,,,,,3,3
BBC,BBC-10-151,151,10,81,ARM B,2,ARM B,2,Y,Y,Y,Y,28DEC2006,22MAR2007,6,WEEK 6,2007-02-08,08FEB2007,43,,Week 6,6,"Thickness, Upper Extremities",THKUEX,7,,3,3,0,0,,37-50 DAYS,43,0,37,50,DAYS,,Y,,,,,3,3
BBC,BBC-10-151,151,10,82,ARM B,2,ARM B,2,Y,Y,Y,Y,28DEC2006,22MAR2007,8,WEEK 8,2007-02-22,22FEB2007,57,,Week 8,8,"Thickness, Upper Extremities",THKUEX,7,,2,3,-1,-33.3,,51-71 DAYS,57,0,51,71,DAYS,,Y,,,,,2,3
BBC,BBC-10-151,151,10,83,ARM B,2,ARM B,2,Y,Y,Y,Y,28DEC2006,22MAR2007,12,WEEK 12,2007-03-22,22MAR2007,85,,Week 12,12,"Thickness, Upper Extremities",THKUEX,7,,3,3,0,0,,72-99 DAYS,85,0,72,99,DAYS,,Y,,,,,3,3
BBC,BBC-10-151,151,10,84,ARM B,2,ARM B,2,Y,Y,Y,Y,28DEC2006,22MAR2007,16,WEEK 16,2007-04-19,19APR2007,113,,Week 16,16,"Thickness, Upper Extremities",THKUEX,7,,2,3,-1,-33.3,,22-36 DAYS POST-LAST-DOSE,113,0,106,120,DAYS,,,,,,,2,3
BBC,BBC-10-151,151,10,50,ARM B,2,ARM B,2,Y,Y,Y,Y,28DEC2006,22MAR2007,1,DAY 1,2006-12-28,28DEC2006,1,,Day 1 Baseline,0,"Thickness, Trunk",THKTRUNK,8,,3,3,,,,,,,,,,Y,Y,,,,,,3
BBC,BBC-10-151,151,10,51,ARM B,2,ARM B,2,Y,Y,Y,Y,28DEC2006,22MAR2007,2,WEEK 2,2007-01-12,12JAN2007,16,,Week 2,2,"Thickness, Trunk",THKTRUNK,8,,3,3,0,0,,8-22 DAYS,15,1,8,22,DAYS,,Y,,,,,3,3
BBC,BBC-10-151,151,10,52,ARM B,2,ARM B,2,Y,Y,Y,Y,28DEC2006,22MAR2007,4,WEEK 4,2007-01-25,25JAN2007,29,,Week 4,4,"Thickness, Trunk",THKTRUNK,8,,3,3,0,0,,23-36 DAYS,29,0,23,36,DAYS,,Y,,,,,3,3
BBC,BBC-10-151,151,10,53,ARM B,2,ARM B,2,Y,Y,Y,Y,28DEC2006,22MAR2007,6,WEEK 6,2007-02-08,08FEB2007,43,,Week 6,6,"Thickness, Trunk",THKTRUNK,8,,1,3,-2,-66.7,,37-50 DAYS,43,0,37,50,DAYS,,Y,,,,,1,3
BBC,BBC-10-151,151,10,54,ARM B,2,ARM B,2,Y,Y,Y,Y,28DEC2006,22MAR2007,8,WEEK 8,2007-02-22,22FEB2007,57,,Week 8,8,"Thickness, Trunk",THKTRUNK,8,,0,3,-3,-100,,51-71 DAYS,57,0,51,71,DAYS,,Y,,,,,0,3
BBC,BBC-10-151,151,10,55,ARM B,2,ARM B,2,Y,Y,Y,Y,28DEC2006,22MAR2007,12,WEEK 12,2007-03-22,22MAR2007,85,,Week 12,12,"Thickness, Trunk",THKTRUNK,8,,0,3,-3,-100,,72-99 DAYS,85,0,72,99,DAYS,,Y,,,,,0,3
BBC,BBC-10-151,151,10,56,ARM B,2,ARM B,2,Y,Y,Y,Y,28DEC2006,22MAR2007,16,WEEK 16,2007-04-19,19APR2007,113,,Week 16,16,"Thickness, Trunk",THKTRUNK,8,,1,3,-2,-66.7,,22-36 DAYS POST-LAST-DOSE,113,0,106,120,DAYS,,,,,,,1,3
BBC,BBC-10-151,151,10,22,ARM B,2,ARM B,2,Y,Y,Y,Y,28DEC2006,22MAR2007,1,DAY 1,2006-12-28,28DEC2006,1,,Day 1 Baseline,0,"Thickness, Lower Extremities",THKLEX,9,,4,4,,,,,,,,,,Y,Y,,,,,,4
BBC,BBC-10-151,151,10,23,ARM B,2,ARM B,2,Y,Y,Y,Y,28DEC2006,22MAR2007,2,WEEK 2,2007-01-12,12JAN2007,16,,Week 2,2,"Thickness, Lower Extremities",THKLEX,9,,4,4,0,0,,8-22 DAYS,15,1,8,22,DAYS,,Y,,,,,4,4
BBC,BBC-10-151,151,10,24,ARM B,2,ARM B,2,Y,Y,Y,Y,28DEC2006,22MAR2007,4,WEEK 4,2007-01-25,25JAN2007,29,,Week 4,4,"Thickness, Lower Extremities",THKLEX,9,,4,4,0,0,,23-36 DAYS,29,0,23,36,DAYS,,Y,,,,,4,4
BBC,BBC-10-151,151,10,25,ARM B,2,ARM B,2,Y,Y,Y,Y,28DEC2006,22MAR2007,6,WEEK 6,2007-02-08,08FEB2007,43,,Week 6,6,"Thickness, Lower Extremities",THKLEX,9,,2,4,-2,-50,,37-50 DAYS,43,0,37,50,DAYS,,Y,,,,,2,4
BBC,BBC-10-151,151,10,26,ARM B,2,ARM B,2,Y,Y,Y,Y,28DEC2006,22MAR2007,8,WEEK 8,2007-02-22,22FEB2007,57,,Week 8,8,"Thickness, Lower Extremities",THKLEX,9,,2,4,-2,-50,,51-71 DAYS,57,0,51,71,DAYS,,Y,,,,,2,4
BBC,BBC-10-151,151,10,27,ARM B,2,ARM B,2,Y,Y,Y,Y,28DEC2006,22MAR2007,12,WEEK 12,2007-03-22,22MAR2007,85,,Week 12,12,"Thickness, Lower Extremities",THKLEX,9,,1,4,-3,-75,,72-99 DAYS,85,0,72,99,DAYS,,Y,,,,,1,4
BBC,BBC-10-151,151,10,28,ARM B,2,ARM B,2,Y,Y,Y,Y,28DEC2006,22MAR2007,16,WEEK 16,2007-04-19,19APR2007,113,,Week 16,16,"Thickness, Lower Extremities",THKLEX,9,,1,4,-3,-75,,22-36 DAYS POST-LAST-DOSE,113,0,106,120,DAYS,,,,,,,1,4
BBC,BBC-10-151,151,10,71,ARM B,2,ARM B,2,Y,Y,Y,Y,28DEC2006,22MAR2007,1,DAY 1,2006-12-28,28DEC2006,1,,Day 1 Baseline,0,"Scale, Upper Extremities",SCUEX,10,,3,3,,,,,,,,,,Y,Y,,,,,,3
BBC,BBC-10-151,151,10,72,ARM B,2,ARM B,2,Y,Y,Y,Y,28DEC2006,22MAR2007,2,WEEK 2,2007-01-12,12JAN2007,16,,Week 2,2,"Scale, Upper Extremities",SCUEX,10,,3,3,0,0,,8-22 DAYS,15,1,8,22,DAYS,,Y,,,,,3,3
BBC,BBC-10-151,151,10,73,ARM B,2,ARM B,2,Y,Y,Y,Y,28DEC2006,22MAR2007,4,WEEK 4,2007-01-25,25JAN2007,29,,Week 4,4,"Scale, Upper Extremities",SCUEX,10,,3,3,0,0,,23-36 DAYS,29,0,23,36,DAYS,,Y,,,,,3,3
BBC,BBC-10-151,151,10,74,ARM B,2,ARM B,2,Y,Y,Y,Y,28DEC2006,22MAR2007,6,WEEK 6,2007-02-08,08FEB2007,43,,Week 6,6,"Scale, Upper Extremities",SCUEX,10,,2,3,-1,-33.3,,37-50 DAYS,43,0,37,50,DAYS,,Y,,,,,2,3
BBC,BBC-10-151,151,10,75,ARM B,2,ARM B,2,Y,Y,Y,Y,28DEC2006,22MAR2007,8,WEEK 8,2007-02-22,22FEB2007,57,,Week 8,8,"Scale, Upper Extremities",SCUEX,10,,1,3,-2,-66.7,,51-71 DAYS,57,0,51,71,DAYS,,Y,,,,,1,3
BBC,BBC-10-151,151,10,76,ARM B,2,ARM B,2,Y,Y,Y,Y,28DEC2006,22MAR2007,12,WEEK 12,2007-03-22,22MAR2007,85,,Week 12,12,"Scale, Upper Extremities",SCUEX,10,,2,3,-1,-33.3,,72-99 DAYS,85,0,72,99,DAYS,,Y,,,,,2,3
BBC,BBC-10-151,151,10,77,ARM B,2,ARM B,2,Y,Y,Y,Y,28DEC2006,22MAR2007,16,WEEK 16,2007-04-19,19APR2007,113,,Week 16,16,"Scale, Upper Extremities",SCUEX,10,,4,3,1,33.3,,22-36 DAYS POST-LAST-DOSE,113,0,106,120,DAYS,,,,,,,4,3
BBC,BBC-10-151,151,10,43,ARM B,2,ARM B,2,Y,Y,Y,Y,28DEC2006,22MAR2007,1,DAY 1,2006-12-28,28DEC2006,1,,Day 1 Baseline,0,"Scale, Trunk",SCTRUNK,11,,3,3,,,,,,,,,,Y,Y,,,,,,3
BBC,BBC-10-151,151,10,44,ARM B,2,ARM B,2,Y,Y,Y,Y,28DEC2006,22MAR2007,2,WEEK 2,2007-01-12,12JAN2007,16,,Week 2,2,"Scale, Trunk",SCTRUNK,11,,3,3,0,0,,8-22 DAYS,15,1,8,22,DAYS,,Y,,,,,3,3
BBC,BBC-10-151,151,10,45,ARM B,2,ARM B,2,Y,Y,Y,Y,28DEC2006,22MAR2007,4,WEEK 4,2007-01-25,25JAN2007,29,,Week 4,4,"Scale, Trunk",SCTRUNK,11,,3,3,0,0,,23-36 DAYS,29,0,23,36,DAYS,,Y,,,,,3,3
BBC,BBC-10-151,151,10,46,ARM B,2,ARM B,2,Y,Y,Y,Y,28DEC2006,22MAR2007,6,WEEK 6,2007-02-08,08FEB2007,43,,Week 6,6,"Scale, Trunk",SCTRUNK,11,,1,3,-2,-66.7,,37-50 DAYS,43,0,37,50,DAYS,,Y,,,,,1,3
BBC,BBC-10-151,151,10,47,ARM B,2,ARM B,2,Y,Y,Y,Y,28DEC2006,22MAR2007,8,WEEK 8,2007-02-22,22FEB2007,57,,Week 8,8,"Scale, Trunk",SCTRUNK,11,,1,3,-2,-66.7,,51-71 DAYS,57,0,51,71,DAYS,,Y,,,,,1,3
BBC,BBC-10-151,151,10,48,ARM B,2,ARM B,2,Y,Y,Y,Y,28DEC2006,22MAR2007,12,WEEK 12,2007-03-22,22MAR2007,85,,Week 12,12,"Scale, Trunk",SCTRUNK,11,,1,3,-2,-66.7,,72-99 DAYS,85,0,72,99,DAYS,,Y,,,,,1,3
BBC,BBC-10-151,151,10,49,ARM B,2,ARM B,2,Y,Y,Y,Y,28DEC2006,22MAR2007,16,WEEK 16,2007-04-19,19APR2007,113,,Week 16,16,"Scale, Trunk",SCTRUNK,11,,1,3,-2,-66.7,,22-36 DAYS POST-LAST-DOSE,113,0,106,120,DAYS,,,,,,,1,3
BBC,BBC-10-151,151,10,15,ARM B,2,ARM B,2,Y,Y,Y,Y,28DEC2006,22MAR2007,1,DAY 1,2006-12-28,28DEC2006,1,,Day 1 Baseline,0,"Scale, Lower Extremities",SCLEX,12,,4,4,,,,,,,,,,Y,Y,,,,,,4
BBC,BBC-10-151,151,10,16,ARM B,2,ARM B,2,Y,Y,Y,Y,28DEC2006,22MAR2007,2,WEEK 2,2007-01-12,12JAN2007,16,,Week 2,2,"Scale, Lower Extremities",SCLEX,12,,4,4,0,0,,8-22 DAYS,15,1,8,22,DAYS,,Y,,,,,4,4
BBC,BBC-10-151,151,10,17,ARM B,2,ARM B,2,Y,Y,Y,Y,28DEC2006,22MAR2007,4,WEEK 4,2007-01-25,25JAN2007,29,,Week 4,4,"Scale, Lower Extremities",SCLEX,12,,4,4,0,0,,23-36 DAYS,29,0,23,36,DAYS,,Y,,,,,4,4
BBC,BBC-10-151,151,10,18,ARM B,2,ARM B,2,Y,Y,Y,Y,28DEC2006,22MAR2007,6,WEEK 6,2007-02-08,08FEB2007,43,,Week 6,6,"Scale, Lower Extremities",SCLEX,12,,1,4,-3,-75,,37-50 DAYS,43,0,37,50,DAYS,,Y,,,,,1,4
BBC,BBC-10-151,151,10,19,ARM B,2,ARM B,2,Y,Y,Y,Y,28DEC2006,22MAR2007,8,WEEK 8,2007-02-22,22FEB2007,57,,Week 8,8,"Scale, Lower Extremities",SCLEX,12,,1,4,-3,-75,,51-71 DAYS,57,0,51,71,DAYS,,Y,,,,,1,4
BBC,BBC-10-151,151,10,20,ARM B,2,ARM B,2,Y,Y,Y,Y,28DEC2006,22MAR2007,12,WEEK 12,2007-03-22,22MAR2007,85,,Week 12,12,"Scale, Lower Extremities",SCLEX,12,,1,4,-3,-75,,72-99 DAYS,85,0,72,99,DAYS,,Y,,,,,1,4
BBC,BBC-10-151,151,10,21,ARM B,2,ARM B,2,Y,Y,Y,Y,28DEC2006,22MAR2007,16,WEEK 16,2007-04-19,19APR2007,113,,Week 16,16,"Scale, Lower Extremities",SCLEX,12,,1,4,-3,-75,,22-36 DAYS POST-LAST-DOSE,113,0,106,120,DAYS,,,,,,,1,4
BBC,BBC-10-151,151,10,78,ARM B,2,ARM B,2,Y,Y,Y,Y,28DEC2006,22MAR2007,1,DAY 1,2006-12-28,28DEC2006,1,,Day 1 Baseline,0,Area Adjusted Psoriasis Area and Severity Index,PASISCOR,13,DERIVED,9.9,9.9,,,,,,,,,,Y,Y,,,,,,9.9
BBC,BBC-10-151,151,10,79,ARM B,2,ARM B,2,Y,Y,Y,Y,28DEC2006,22MAR2007,2,WEEK 2,2007-01-12,12JAN2007,16,,Week 2,2,Area Adjusted Psoriasis Area and Severity Index,PASISCOR,13,DERIVED,9.3,9.9,-0.6,-6.1,,8-22 DAYS,15,1,8,22,DAYS,,Y,,,,,9.3,9.9
BBC,BBC-10-151,151,10,80,ARM B,2,ARM B,2,Y,Y,Y,Y,28DEC2006,22MAR2007,4,WEEK 4,2007-01-25,25JAN2007,29,,Week 4,4,Area Adjusted Psoriasis Area and Severity Index,PASISCOR,13,DERIVED,8.9,9.9,-1,-10.1,,23-36 DAYS,29,0,23,36,DAYS,,Y,,,,,8.9,9.9
BBC,BBC-10-151,151,10,81,ARM B,2,ARM B,2,Y,Y,Y,Y,28DEC2006,22MAR2007,6,WEEK 6,2007-02-08,08FEB2007,43,,Week 6,6,Area Adjusted Psoriasis Area and Severity Index,PASISCOR,13,DERIVED,5.2,9.9,-4.7,-47.5,,37-50 DAYS,43,0,37,50,DAYS,,Y,,,,,5.2,9.9
BBC,BBC-10-151,151,10,82,ARM B,2,ARM B,2,Y,Y,Y,Y,28DEC2006,22MAR2007,8,WEEK 8,2007-02-22,22FEB2007,57,,Week 8,8,Area Adjusted Psoriasis Area and Severity Index,PASISCOR,13,DERIVED,3.2,9.9,-6.7,-67.7,,51-71 DAYS,57,0,51,71,DAYS,,Y,,,Improvement in AAPASI score from baseline of at least 50%,Y,3.2,9.9
BBC,BBC-10-151,151,10,83,ARM B,2,ARM B,2,Y,Y,Y,Y,28DEC2006,22MAR2007,12,WEEK 12,2007-03-22,22MAR2007,85,,Week 12,12,Area Adjusted Psoriasis Area and Severity Index,PASISCOR,13,DERIVED,3.9,9.9,-6,-60.6,,72-99 DAYS,85,0,72,99,DAYS,,Y,,,Improvement in AAPASI score from baseline of at least 50%,Y,3.9,9.9
BBC,BBC-10-151,151,10,84,ARM B,2,ARM B,2,Y,Y,Y,Y,28DEC2006,22MAR2007,16,WEEK 16,2007-04-19,19APR2007,113,,Week 16,16,Area Adjusted Psoriasis Area and Severity Index,PASISCOR,13,DERIVED,4.9,9.9,-5,-50.5,,22-36 DAYS POST-LAST-DOSE,113,0,106,120,DAYS,,,,,Improvement in AAPASI score from baseline of at least 50%,Y,4.9,9.9
BBC,BBC-10-152,152,10,57,ARM C,3,ARM C,3,Y,Y,Y,Y,08JAN2007,04APR2007,1,DAY 1,2007-01-08,08JAN2007,1,,Day 1 Baseline,0,"Area Score, Upper Extremities",ASUEX,1,,1,1,,,,,,,,,,Y,Y,,,,,,1
BBC,BBC-10-152,152,10,58,ARM C,3,ARM C,3,Y,Y,Y,Y,08JAN2007,04APR2007,2,WEEK 2,2007-01-23,23JAN2007,16,,Week 2,2,"Area Score, Upper Extremities",ASUEX,1,,1,1,0,0,,8-22 DAYS,15,1,8,22,DAYS,,Y,,,,,1,1
BBC,BBC-10-152,152,10,57,ARM C,3,ARM C,3,Y,Y,Y,Y,08JAN2007,04APR2007,4,WEEK 4,,,,,Week 4,4,"Area Score, Upper Extremities",ASUEX,1,,1,1,,,LOCF,,,,,,,,Y,,,,,1,1
BBC,BBC-10-152,152,10,59,ARM C,3,ARM C,3,Y,Y,Y,Y,08JAN2007,04APR2007,4,WEEK 4,2007-02-13,13FEB2007,37,,Week 6,6,"Area Score, Upper Extremities",ASUEX,1,,1,1,0,0,,37-50 DAYS,43,6,37,50,DAYS,,,,,,,1,1
BBC,BBC-10-152,152,10,60,ARM C,3,ARM C,3,Y,Y,Y,Y,08JAN2007,04APR2007,6,WEEK 6,2007-02-23,23FEB2007,47,,Week 6,6,"Area Score, Upper Extremities",ASUEX,1,,1,1,0,0,,37-50 DAYS,43,4,37,50,DAYS,,Y,,,,,1,1
BBC,BBC-10-152,152,10,61,ARM C,3,ARM C,3,Y,Y,Y,Y,08JAN2007,04APR2007,8,WEEK 8,2007-03-12,12MAR2007,64,,Week 8,8,"Area Score, Upper Extremities",ASUEX,1,,1,1,0,0,,51-71 DAYS,57,7,51,71,DAYS,,Y,,,,,1,1
BBC,BBC-10-152,152,10,62,ARM C,3,ARM C,3,Y,Y,Y,Y,08JAN2007,04APR2007,12,WEEK 12,2007-04-04,04APR2007,87,,Week 12,12,"Area Score, Upper Extremities",ASUEX,1,,1,1,0,0,,72-99 DAYS,85,2,72,99,DAYS,,Y,,,,,1,1
BBC,BBC-10-152,152,10,63,ARM C,3,ARM C,3,Y,Y,Y,Y,08JAN2007,04APR2007,16,WEEK 16,2007-04-30,30APR2007,113,,Week 16,16,"Area Score, Upper Extremities",ASUEX,1,,1,1,0,0,,22-36 DAYS POST-LAST-DOSE,115,2,108,122,DAYS,,,,,,,1,1
BBC,BBC-10-152,152,10,29,ARM C,3,ARM C,3,Y,Y,Y,Y,08JAN2007,04APR2007,1,DAY 1,2007-01-08,08JAN2007,1,,Day 1 Baseline,0,"Area Score, Trunk",ASTRUNK,2,,1,1,,,,,,,,,,Y,Y,,,,,,1
BBC,BBC-10-152,152,10,30,ARM C,3,ARM C,3,Y,Y,Y,Y,08JAN2007,04APR2007,2,WEEK 2,2007-01-23,23JAN2007,16,,Week 2,2,"Area Score, Trunk",ASTRUNK,2,,1,1,0,0,,8-22 DAYS,15,1,8,22,DAYS,,Y,,,,,1,1
BBC,BBC-10-152,152,10,29,ARM C,3,ARM C,3,Y,Y,Y,Y,08JAN2007,04APR2007,4,WEEK 4,,,,,Week 4,4,"Area Score, Trunk",ASTRUNK,2,,1,1,,,LOCF,,,,,,,,Y,,,,,1,1
BBC,BBC-10-152,152,10,31,ARM C,3,ARM C,3,Y,Y,Y,Y,08JAN2007,04APR2007,4,WEEK 4,2007-02-13,13FEB2007,37,,Week 6,6,"Area Score, Trunk",ASTRUNK,2,,1,1,0,0,,37-50 DAYS,43,6,37,50,DAYS,,,,,,,1,1
BBC,BBC-10-152,152,10,32,ARM C,3,ARM C,3,Y,Y,Y,Y,08JAN2007,04APR2007,6,WEEK 6,2007-02-23,23FEB2007,47,,Week 6,6,"Area Score, Trunk",ASTRUNK,2,,1,1,0,0,,37-50 DAYS,43,4,37,50,DAYS,,Y,,,,,1,1
BBC,BBC-10-152,152,10,33,ARM C,3,ARM C,3,Y,Y,Y,Y,08JAN2007,04APR2007,8,WEEK 8,2007-03-12,12MAR2007,64,,Week 8,8,"Area Score, Trunk",ASTRUNK,2,,1,1,0,0,,51-71 DAYS,57,7,51,71,DAYS,,Y,,,,,1,1
BBC,BBC-10-152,152,10,34,ARM C,3,ARM C,3,Y,Y,Y,Y,08JAN2007,04APR2007,12,WEEK 12,2007-04-04,04APR2007,87,,Week 12,12,"Area Score, Trunk",ASTRUNK,2,,1,1,0,0,,72-99 DAYS,85,2,72,99,DAYS,,Y,,,,,1,1
BBC,BBC-10-152,152,10,35,ARM C,3,ARM C,3,Y,Y,Y,Y,08JAN2007,04APR2007,16,WEEK 16,2007-04-30,30APR2007,113,,Week 16,16,"Area Score, Trunk",ASTRUNK,2,,1,1,0,0,,22-36 DAYS POST-LAST-DOSE,115,2,108,122,DAYS,,,,,,,1,1
BBC,BBC-10-152,152,10,1,ARM C,3,ARM C,3,Y,Y,Y,Y,08JAN2007,04APR2007,1,DAY 1,2007-01-08,08JAN2007,1,,Day 1 Baseline,0,"Area Score, Lower Extremities",ASLEX,3,,1,1,,,,,,,,,,Y,Y,,,,,,1
BBC,BBC-10-152,152,10,2,ARM C,3,ARM C,3,Y,Y,Y,Y,08JAN2007,04APR2007,2,WEEK 2,2007-01-23,23JAN2007,16,,Week 2,2,"Area Score, Lower Extremities",ASLEX,3,,1,1,0,0,,8-22 DAYS,15,1,8,22,DAYS,,Y,,,,,1,1
BBC,BBC-10-152,152,10,1,ARM C,3,ARM C,3,Y,Y,Y,Y,08JAN2007,04APR2007,4,WEEK 4,,,,,Week 4,4,"Area Score, Lower Extremities",ASLEX,3,,1,1,,,LOCF,,,,,,,,Y,,,,,1,1
BBC,BBC-10-152,152,10,3,ARM C,3,ARM C,3,Y,Y,Y,Y,08JAN2007,04APR2007,4,WEEK 4,2007-02-13,13FEB2007,37,,Week 6,6,"Area Score, Lower Extremities",ASLEX,3,,1,1,0,0,,37-50 DAYS,43,6,37,50,DAYS,,,,,,,1,1
BBC,BBC-10-152,152,10,4,ARM C,3,ARM C,3,Y,Y,Y,Y,08JAN2007,04APR2007,6,WEEK 6,2007-02-23,23FEB2007,47,,Week 6,6,"Area Score, Lower Extremities",ASLEX,3,,1,1,0,0,,37-50 DAYS,43,4,37,50,DAYS,,Y,,,,,1,1
BBC,BBC-10-152,152,10,5,ARM C,3,ARM C,3,Y,Y,Y,Y,08JAN2007,04APR2007,8,WEEK 8,2007-03-12,12MAR2007,64,,Week 8,8,"Area Score, Lower Extremities",ASLEX,3,,1,1,0,0,,51-71 DAYS,57,7,51,71,DAYS,,Y,,,,,1,1
BBC,BBC-10-152,152,10,6,ARM C,3,ARM C,3,Y,Y,Y,Y,08JAN2007,04APR2007,12,WEEK 12,2007-04-04,04APR2007,87,,Week 12,12,"Area Score, Lower Extremities",ASLEX,3,,1,1,0,0,,72-99 DAYS,85,2,72,99,DAYS,,Y,,,,,1,1
BBC,BBC-10-152,152,10,7,ARM C,3,ARM C,3,Y,Y,Y,Y,08JAN2007,04APR2007,16,WEEK 16,2007-04-30,30APR2007,113,,Week 16,16,"Area Score, Lower Extremities",ASLEX,3,,1,1,0,0,,22-36 DAYS POST-LAST-DOSE,115,2,108,122,DAYS,,,,,,,1,1
BBC,BBC-10-152,152,10,64,ARM C,3,ARM C,3,Y,Y,Y,Y,08JAN2007,04APR2007,1,DAY 1,2007-01-08,08JAN2007,1,,Day 1 Baseline,0,"Erythema, Upper Extremities",ERUEX,4,,3,3,,,,,,,,,,Y,Y,,,,,,3
BBC,BBC-10-152,152,10,65,ARM C,3,ARM C,3,Y,Y,Y,Y,08JAN2007,04APR2007,2,WEEK 2,2007-01-23,23JAN2007,16,,Week 2,2,"Erythema, Upper Extremities",ERUEX,4,,3,3,0,0,,8-22 DAYS,15,1,8,22,DAYS,,Y,,,,,3,3
BBC,BBC-10-152,152,10,64,ARM C,3,ARM C,3,Y,Y,Y,Y,08JAN2007,04APR2007,4,WEEK 4,,,,,Week 4,4,"Erythema, Upper Extremities",ERUEX,4,,3,3,,,LOCF,,,,,,,,Y,,,,,3,3
BBC,BBC-10-152,152,10,66,ARM C,3,ARM C,3,Y,Y,Y,Y,08JAN2007,04APR2007,4,WEEK 4,2007-02-13,13FEB2007,37,,Week 6,6,"Erythema, Upper Extremities",ERUEX,4,,1,3,-2,-66.7,,37-50 DAYS,43,6,37,50,DAYS,,,,,,,1,3
BBC,BBC-10-152,152,10,67,ARM C,3,ARM C,3,Y,Y,Y,Y,08JAN2007,04APR2007,6,WEEK 6,2007-02-23,23FEB2007,47,,Week 6,6,"Erythema, Upper Extremities",ERUEX,4,,2,3,-1,-33.3,,37-50 DAYS,43,4,37,50,DAYS,,Y,,,,,2,3
BBC,BBC-10-152,152,10,68,ARM C,3,ARM C,3,Y,Y,Y,Y,08JAN2007,04APR2007,8,WEEK 8,2007-03-12,12MAR2007,64,,Week 8,8,"Erythema, Upper Extremities",ERUEX,4,,1,3,-2,-66.7,,51-71 DAYS,57,7,51,71,DAYS,,Y,,,,,1,3
BBC,BBC-10-152,152,10,69,ARM C,3,ARM C,3,Y,Y,Y,Y,08JAN2007,04APR2007,12,WEEK 12,2007-04-04,04APR2007,87,,Week 12,12,"Erythema, Upper Extremities",ERUEX,4,,2,3,-1,-33.3,,72-99 DAYS,85,2,72,99,DAYS,,Y,,,,,2,3
BBC,BBC-10-152,152,10,70,ARM C,3,ARM C,3,Y,Y,Y,Y,08JAN2007,04APR2007,16,WEEK 16,2007-04-30,30APR2007,113,,Week 16,16,"Erythema, Upper Extremities",ERUEX,4,,2,3,-1,-33.3,,22-36 DAYS POST-LAST-DOSE,115,2,108,122,DAYS,,,,,,,2,3
BBC,BBC-10-152,152,10,36,ARM C,3,ARM C,3,Y,Y,Y,Y,08JAN2007,04APR2007,1,DAY 1,2007-01-08,08JAN2007,1,,Day 1 Baseline,0,"Erythema, Trunk",ERTRUNK,5,,3,3,,,,,,,,,,Y,Y,,,,,,3
BBC,BBC-10-152,152,10,37,ARM C,3,ARM C,3,Y,Y,Y,Y,08JAN2007,04APR2007,2,WEEK 2,2007-01-23,23JAN2007,16,,Week 2,2,"Erythema, Trunk",ERTRUNK,5,,3,3,0,0,,8-22 DAYS,15,1,8,22,DAYS,,Y,,,,,3,3
BBC,BBC-10-152,152,10,36,ARM C,3,ARM C,3,Y,Y,Y,Y,08JAN2007,04APR2007,4,WEEK 4,,,,,Week 4,4,"Erythema, Trunk",ERTRUNK,5,,3,3,,,LOCF,,,,,,,,Y,,,,,3,3
BBC,BBC-10-152,152,10,38,ARM C,3,ARM C,3,Y,Y,Y,Y,08JAN2007,04APR2007,4,WEEK 4,2007-02-13,13FEB2007,37,,Week 6,6,"Erythema, Trunk",ERTRUNK,5,,1,3,-2,-66.7,,37-50 DAYS,43,6,37,50,DAYS,,,,,,,1,3
BBC,BBC-10-152,152,10,39,ARM C,3,ARM C,3,Y,Y,Y,Y,08JAN2007,04APR2007,6,WEEK 6,2007-02-23,23FEB2007,47,,Week 6,6,"Erythema, Trunk",ERTRUNK,5,,2,3,-1,-33.3,,37-50 DAYS,43,4,37,50,DAYS,,Y,,,,,2,3
BBC,BBC-10-152,152,10,40,ARM C,3,ARM C,3,Y,Y,Y,Y,08JAN2007,04APR2007,8,WEEK 8,2007-03-12,12MAR2007,64,,Week 8,8,"Erythema, Trunk",ERTRUNK,5,,1,3,-2,-66.7,,51-71 DAYS,57,7,51,71,DAYS,,Y,,,,,1,3
BBC,BBC-10-152,152,10,41,ARM C,3,ARM C,3,Y,Y,Y,Y,08JAN2007,04APR2007,12,WEEK 12,2007-04-04,04APR2007,87,,Week 12,12,"Erythema, Trunk",ERTRUNK,5,,1,3,-2,-66.7,,72-99 DAYS,85,2,72,99,DAYS,,Y,,,,,1,3
BBC,BBC-10-152,152,10,42,ARM C,3,ARM C,3,Y,Y,Y,Y,08JAN2007,04APR2007,16,WEEK 16,2007-04-30,30APR2007,113,,Week 16,16,"Erythema, Trunk",ERTRUNK,5,,0,3,-3,-100,,22-36 DAYS POST-LAST-DOSE,115,2,108,122,DAYS,,,,,,,0,3
BBC,BBC-10-152,152,10,8,ARM C,3,ARM C,3,Y,Y,Y,Y,08JAN2007,04APR2007,1,DAY 1,2007-01-08,08JAN2007,1,,Day 1 Baseline,0,"Erythema, Lower Extremities",ERLEX,6,,3,3,,,,,,,,,,Y,Y,,,,,,3
BBC,BBC-10-152,152,10,9,ARM C,3,ARM C,3,Y,Y,Y,Y,08JAN2007,04APR2007,2,WEEK 2,2007-01-23,23JAN2007,16,,Week 2,2,"Erythema, Lower Extremities",ERLEX,6,,3,3,0,0,,8-22 DAYS,15,1,8,22,DAYS,,Y,,,,,3,3
BBC,BBC-10-152,152,10,8,ARM C,3,ARM C,3,Y,Y,Y,Y,08JAN2007,04APR2007,4,WEEK 4,,,,,Week 4,4,"Erythema, Lower Extremities",ERLEX,6,,3,3,,,LOCF,,,,,,,,Y,,,,,3,3
BBC,BBC-10-152,152,10,10,ARM C,3,ARM C,3,Y,Y,Y,Y,08JAN2007,04APR2007,4,WEEK 4,2007-02-13,13FEB2007,37,,Week 6,6,"Erythema, Lower Extremities",ERLEX,6,,1,3,-2,-66.7,,37-50 DAYS,43,6,37,50,DAYS,,,,,,,1,3
BBC,BBC-10-152,152,10,11,ARM C,3,ARM C,3,Y,Y,Y,Y,08JAN2007,04APR2007,6,WEEK 6,2007-02-23,23FEB2007,47,,Week 6,6,"Erythema, Lower Extremities",ERLEX,6,,1,3,-2,-66.7,,37-50 DAYS,43,4,37,50,DAYS,,Y,,,,,1,3
BBC,BBC-10-152,152,10,12,ARM C,3,ARM C,3,Y,Y,Y,Y,08JAN2007,04APR2007,8,WEEK 8,2007-03-12,12MAR2007,64,,Week 8,8,"Erythema, Lower Extremities",ERLEX,6,,1,3,-2,-66.7,,51-71 DAYS,57,7,51,71,DAYS,,Y,,,,,1,3
BBC,BBC-10-152,152,10,13,ARM C,3,ARM C,3,Y,Y,Y,Y,08JAN2007,04APR2007,12,WEEK 12,2007-04-04,04APR2007,87,,Week 12,12,"Erythema, Lower Extremities",ERLEX,6,,0,3,-3,-100,,72-99 DAYS,85,2,72,99,DAYS,,Y,,,,,0,3
BBC,BBC-10-152,152,10,14,ARM C,3,ARM C,3,Y,Y,Y,Y,08JAN2007,04APR2007,16,WEEK 16,2007-04-30,30APR2007,113,,Week 16,16,"Erythema, Lower Extremities",ERLEX,6,,0,3,-3,-100,,22-36 DAYS POST-LAST-DOSE,115,2,108,122,DAYS,,,,,,,0,3
BBC,BBC-10-152,152,10,78,ARM C,3,ARM C,3,Y,Y,Y,Y,08JAN2007,04APR2007,1,DAY 1,2007-01-08,08JAN2007,1,,Day 1 Baseline,0,"Thickness, Upper Extremities",THKUEX,7,,2,2,,,,,,,,,,Y,Y,,,,,,2
BBC,BBC-10-152,152,10,79,ARM C,3,ARM C,3,Y,Y,Y,Y,08JAN2007,04APR2007,2,WEEK 2,2007-01-23,23JAN2007,16,,Week 2,2,"Thickness, Upper Extremities",THKUEX,7,,2,2,0,0,,8-22 DAYS,15,1,8,22,DAYS,,Y,,,,,2,2
BBC,BBC-10-152,152,10,78,ARM C,3,ARM C,3,Y,Y,Y,Y,08JAN2007,04APR2007,4,WEEK 4,,,,,Week 4,4,"Thickness, Upper Extremities",THKUEX,7,,2,2,,,LOCF,,,,,,,,Y,,,,,2,2
BBC,BBC-10-152,152,10,80,ARM C,3,ARM C,3,Y,Y,Y,Y,08JAN2007,04APR2007,4,WEEK 4,2007-02-13,13FEB2007,37,,Week 6,6,"Thickness, Upper Extremities",THKUEX,7,,1,2,-1,-50,,37-50 DAYS,43,6,37,50,DAYS,,,,,,,1,2
BBC,BBC-10-152,152,10,81,ARM C,3,ARM C,3,Y,Y,Y,Y,08JAN2007,04APR2007,6,WEEK 6,2007-02-23,23FEB2007,47,,Week 6,6,"Thickness, Upper Extremities",THKUEX,7,,2,2,0,0,,37-50 DAYS,43,4,37,50,DAYS,,Y,,,,,2,2
BBC,BBC-10-152,152,10,82,ARM C,3,ARM C,3,Y,Y,Y,Y,08JAN2007,04APR2007,8,WEEK 8,2007-03-12,12MAR2007,64,,Week 8,8,"Thickness, Upper Extremities",THKUEX,7,,2,2,0,0,,51-71 DAYS,57,7,51,71,DAYS,,Y,,,,,2,2
BBC,BBC-10-152,152,10,83,ARM C,3,ARM C,3,Y,Y,Y,Y,08JAN2007,04APR2007,12,WEEK 12,2007-04-04,04APR2007,87,,Week 12,12,"Thickness, Upper Extremities",THKUEX,7,,1,2,-1,-50,,72-99 DAYS,85,2,72,99,DAYS,,Y,,,,,1,2
BBC,BBC-10-152,152,10,84,ARM C,3,ARM C,3,Y,Y,Y,Y,08JAN2007,04APR2007,16,WEEK 16,2007-04-30,30APR2007,113,,Week 16,16,"Thickness, Upper Extremities",THKUEX,7,,2,2,0,0,,22-36 DAYS POST-LAST-DOSE,115,2,108,122,DAYS,,,,,,,2,2
BBC,BBC-10-152,152,10,50,ARM C,3,ARM C,3,Y,Y,Y,Y,08JAN2007,04APR2007,1,DAY 1,2007-01-08,08JAN2007,1,,Day 1 Baseline,0,"Thickness, Trunk",THKTRUNK,8,,2,2,,,,,,,,,,Y,Y,,,,,,2
BBC,BBC-10-152,152,10,51,ARM C,3,ARM C,3,Y,Y,Y,Y,08JAN2007,04APR2007,2,WEEK 2,2007-01-23,23JAN2007,16,,Week 2,2,"Thickness, Trunk",THKTRUNK,8,,2,2,0,0,,8-22 DAYS,15,1,8,22,DAYS,,Y,,,,,2,2
BBC,BBC-10-152,152,10,50,ARM C,3,ARM C,3,Y,Y,Y,Y,08JAN2007,04APR2007,4,WEEK 4,,,,,Week 4,4,"Thickness, Trunk",THKTRUNK,8,,2,2,,,LOCF,,,,,,,,Y,,,,,2,2
BBC,BBC-10-152,152,10,52,ARM C,3,ARM C,3,Y,Y,Y,Y,08JAN2007,04APR2007,4,WEEK 4,2007-02-13,13FEB2007,37,,Week 6,6,"Thickness, Trunk",THKTRUNK,8,,1,2,-1,-50,,37-50 DAYS,43,6,37,50,DAYS,,,,,,,1,2
BBC,BBC-10-152,152,10,53,ARM C,3,ARM C,3,Y,Y,Y,Y,08JAN2007,04APR2007,6,WEEK 6,2007-02-23,23FEB2007,47,,Week 6,6,"Thickness, Trunk",THKTRUNK,8,,2,2,0,0,,37-50 DAYS,43,4,37,50,DAYS,,Y,,,,,2,2
BBC,BBC-10-152,152,10,54,ARM C,3,ARM C,3,Y,Y,Y,Y,08JAN2007,04APR2007,8,WEEK 8,2007-03-12,12MAR2007,64,,Week 8,8,"Thickness, Trunk",THKTRUNK,8,,2,2,0,0,,51-71 DAYS,57,7,51,71,DAYS,,Y,,,,,2,2
BBC,BBC-10-152,152,10,55,ARM C,3,ARM C,3,Y,Y,Y,Y,08JAN2007,04APR2007,12,WEEK 12,2007-04-04,04APR2007,87,,Week 12,12,"Thickness, Trunk",THKTRUNK,8,,0,2,-2,-100,,72-99 DAYS,85,2,72,99,DAYS,,Y,,,,,0,2
BBC,BBC-10-152,152,10,56,ARM C,3,ARM C,3,Y,Y,Y,Y,08JAN2007,04APR2007,16,WEEK 16,2007-04-30,30APR2007,113,,Week 16,16,"Thickness, Trunk",THKTRUNK,8,,0,2,-2,-100,,22-36 DAYS POST-LAST-DOSE,115,2,108,122,DAYS,,,,,,,0,2
BBC,BBC-10-152,152,10,22,ARM C,3,ARM C,3,Y,Y,Y,Y,08JAN2007,04APR2007,1,DAY 1,2007-01-08,08JAN2007,1,,Day 1 Baseline,0,"Thickness, Lower Extremities",THKLEX,9,,2,2,,,,,,,,,,Y,Y,,,,,,2
BBC,BBC-10-152,152,10,23,ARM C,3,ARM C,3,Y,Y,Y,Y,08JAN2007,04APR2007,2,WEEK 2,2007-01-23,23JAN2007,16,,Week 2,2,"Thickness, Lower Extremities",THKLEX,9,,2,2,0,0,,8-22 DAYS,15,1,8,22,DAYS,,Y,,,,,2,2
BBC,BBC-10-152,152,10,22,ARM C,3,ARM C,3,Y,Y,Y,Y,08JAN2007,04APR2007,4,WEEK 4,,,,,Week 4,4,"Thickness, Lower Extremities",THKLEX,9,,2,2,,,LOCF,,,,,,,,Y,,,,,2,2
BBC,BBC-10-152,152,10,24,ARM C,3,ARM C,3,Y,Y,Y,Y,08JAN2007,04APR2007,4,WEEK 4,2007-02-13,13FEB2007,37,,Week 6,6,"Thickness, Lower Extremities",THKLEX,9,,1,2,-1,-50,,37-50 DAYS,43,6,37,50,DAYS,,,,,,,1,2
BBC,BBC-10-152,152,10,25,ARM C,3,ARM C,3,Y,Y,Y,Y,08JAN2007,04APR2007,6,WEEK 6,2007-02-23,23FEB2007,47,,Week 6,6,"Thickness, Lower Extremities",THKLEX,9,,1,2,-1,-50,,37-50 DAYS,43,4,37,50,DAYS,,Y,,,,,1,2
BBC,BBC-10-152,152,10,26,ARM C,3,ARM C,3,Y,Y,Y,Y,08JAN2007,04APR2007,8,WEEK 8,2007-03-12,12MAR2007,64,,Week 8,8,"Thickness, Lower Extremities",THKLEX,9,,0,2,-2,-100,,51-71 DAYS,57,7,51,71,DAYS,,Y,,,,,0,2
BBC,BBC-10-152,152,10,27,ARM C,3,ARM C,3,Y,Y,Y,Y,08JAN2007,04APR2007,12,WEEK 12,2007-04-04,04APR2007,87,,Week 12,12,"Thickness, Lower Extremities",THKLEX,9,,0,2,-2,-100,,72-99 DAYS,85,2,72,99,DAYS,,Y,,,,,0,2
BBC,BBC-10-152,152,10,28,ARM C,3,ARM C,3,Y,Y,Y,Y,08JAN2007,04APR2007,16,WEEK 16,2007-04-30,30APR2007,113,,Week 16,16,"Thickness, Lower Extremities",THKLEX,9,,0,2,-2,-100,,22-36 DAYS POST-LAST-DOSE,115,2,108,122,DAYS,,,,,,,0,2
BBC,BBC-10-152,152,10,71,ARM C,3,ARM C,3,Y,Y,Y,Y,08JAN2007,04APR2007,1,DAY 1,2007-01-08,08JAN2007,1,,Day 1 Baseline,0,"Scale, Upper Extremities",SCUEX,10,,2,2,,,,,,,,,,Y,Y,,,,,,2
BBC,BBC-10-152,152,10,72,ARM C,3,ARM C,3,Y,Y,Y,Y,08JAN2007,04APR2007,2,WEEK 2,2007-01-23,23JAN2007,16,,Week 2,2,"Scale, Upper Extremities",SCUEX,10,,2,2,0,0,,8-22 DAYS,15,1,8,22,DAYS,,Y,,,,,2,2
BBC,BBC-10-152,152,10,71,ARM C,3,ARM C,3,Y,Y,Y,Y,08JAN2007,04APR2007,4,WEEK 4,,,,,Week 4,4,"Scale, Upper Extremities",SCUEX,10,,2,2,,,LOCF,,,,,,,,Y,,,,,2,2
BBC,BBC-10-152,152,10,73,ARM C,3,ARM C,3,Y,Y,Y,Y,08JAN2007,04APR2007,4,WEEK 4,2007-02-13,13FEB2007,37,,Week 6,6,"Scale, Upper Extremities",SCUEX,10,,1,2,-1,-50,,37-50 DAYS,43,6,37,50,DAYS,,,,,,,1,2
BBC,BBC-10-152,152,10,74,ARM C,3,ARM C,3,Y,Y,Y,Y,08JAN2007,04APR2007,6,WEEK 6,2007-02-23,23FEB2007,47,,Week 6,6,"Scale, Upper Extremities",SCUEX,10,,2,2,0,0,,37-50 DAYS,43,4,37,50,DAYS,,Y,,,,,2,2
BBC,BBC-10-152,152,10,75,ARM C,3,ARM C,3,Y,Y,Y,Y,08JAN2007,04APR2007,8,WEEK 8,2007-03-12,12MAR2007,64,,Week 8,8,"Scale, Upper Extremities",SCUEX,10,,2,2,0,0,,51-71 DAYS,57,7,51,71,DAYS,,Y,,,,,2,2
BBC,BBC-10-152,152,10,76,ARM C,3,ARM C,3,Y,Y,Y,Y,08JAN2007,04APR2007,12,WEEK 12,2007-04-04,04APR2007,87,,Week 12,12,"Scale, Upper Extremities",SCUEX,10,,3,2,1,50,,72-99 DAYS,85,2,72,99,DAYS,,Y,,,,,3,2
BBC,BBC-10-152,152,10,77,ARM C,3,ARM C,3,Y,Y,Y,Y,08JAN2007,04APR2007,16,WEEK 16,2007-04-30,30APR2007,113,,Week 16,16,"Scale, Upper Extremities",SCUEX,10,,2,2,0,0,,22-36 DAYS POST-LAST-DOSE,115,2,108,122,DAYS,,,,,,,2,2
BBC,BBC-10-152,152,10,43,ARM C,3,ARM C,3,Y,Y,Y,Y,08JAN2007,04APR2007,1,DAY 1,2007-01-08,08JAN2007,1,,Day 1 Baseline,0,"Scale, Trunk",SCTRUNK,11,,2,2,,,,,,,,,,Y,Y,,,,,,2
BBC,BBC-10-152,152,10,44,ARM C,3,ARM C,3,Y,Y,Y,Y,08JAN2007,04APR2007,2,WEEK 2,2007-01-23,23JAN2007,16,,Week 2,2,"Scale, Trunk",SCTRUNK,11,,3,2,1,50,,8-22 DAYS,15,1,8,22,DAYS,,Y,,,,,3,2
BBC,BBC-10-152,152,10,43,ARM C,3,ARM C,3,Y,Y,Y,Y,08JAN2007,04APR2007,4,WEEK 4,,,,,Week 4,4,"Scale, Trunk",SCTRUNK,11,,3,2,,,LOCF,,,,,,,,Y,,,,,3,2
BBC,BBC-10-152,152,10,45,ARM C,3,ARM C,3,Y,Y,Y,Y,08JAN2007,04APR2007,4,WEEK 4,2007-02-13,13FEB2007,37,,Week 6,6,"Scale, Trunk",SCTRUNK,11,,1,2,-1,-50,,37-50 DAYS,43,6,37,50,DAYS,,,,,,,1,2
BBC,BBC-10-152,152,10,46,ARM C,3,ARM C,3,Y,Y,Y,Y,08JAN2007,04APR2007,6,WEEK 6,2007-02-23,23FEB2007,47,,Week 6,6,"Scale, Trunk",SCTRUNK,11,,2,2,0,0,,37-50 DAYS,43,4,37,50,DAYS,,Y,,,,,2,2
BBC,BBC-10-152,152,10,47,ARM C,3,ARM C,3,Y,Y,Y,Y,08JAN2007,04APR2007,8,WEEK 8,2007-03-12,12MAR2007,64,,Week 8,8,"Scale, Trunk",SCTRUNK,11,,2,2,0,0,,51-71 DAYS,57,7,51,71,DAYS,,Y,,,,,2,2
BBC,BBC-10-152,152,10,48,ARM C,3,ARM C,3,Y,Y,Y,Y,08JAN2007,04APR2007,12,WEEK 12,2007-04-04,04APR2007,87,,Week 12,12,"Scale, Trunk",SCTRUNK,11,,0,2,-2,-100,,72-99 DAYS,85,2,72,99,DAYS,,Y,,,,,0,2
BBC,BBC-10-152,152,10,49,ARM C,3,ARM C,3,Y,Y,Y,Y,08JAN2007,04APR2007,16,WEEK 16,2007-04-30,30APR2007,113,,Week 16,16,"Scale, Trunk",SCTRUNK,11,,0,2,-2,-100,,22-36 DAYS POST-LAST-DOSE,115,2,108,122,DAYS,,,,,,,0,2
BBC,BBC-10-152,152,10,15,ARM C,3,ARM C,3,Y,Y,Y,Y,08JAN2007,04APR2007,1,DAY 1,2007-01-08,08JAN2007,1,,Day 1 Baseline,0,"Scale, Lower Extremities",SCLEX,12,,2,2,,,,,,,,,,Y,Y,,,,,,2
BBC,BBC-10-152,152,10,16,ARM C,3,ARM C,3,Y,Y,Y,Y,08JAN2007,04APR2007,2,WEEK 2,2007-01-23,23JAN2007,16,,Week 2,2,"Scale, Lower Extremities",SCLEX,12,,1,2,-1,-50,,8-22 DAYS,15,1,8,22,DAYS,,Y,,,,,1,2
BBC,BBC-10-152,152,10,15,ARM C,3,ARM C,3,Y,Y,Y,Y,08JAN2007,04APR2007,4,WEEK 4,,,,,Week 4,4,"Scale, Lower Extremities",SCLEX,12,,1,2,,,LOCF,,,,,,,,Y,,,,,1,2
BBC,BBC-10-152,152,10,17,ARM C,3,ARM C,3,Y,Y,Y,Y,08JAN2007,04APR2007,4,WEEK 4,2007-02-13,13FEB2007,37,,Week 6,6,"Scale, Lower Extremities",SCLEX,12,,0,2,-2,-100,,37-50 DAYS,43,6,37,50,DAYS,,,,,,,0,2
BBC,BBC-10-152,152,10,18,ARM C,3,ARM C,3,Y,Y,Y,Y,08JAN2007,04APR2007,6,WEEK 6,2007-02-23,23FEB2007,47,,Week 6,6,"Scale, Lower Extremities",SCLEX,12,,1,2,-1,-50,,37-50 DAYS,43,4,37,50,DAYS,,Y,,,,,1,2
BBC,BBC-10-152,152,10,19,ARM C,3,ARM C,3,Y,Y,Y,Y,08JAN2007,04APR2007,8,WEEK 8,2007-03-12,12MAR2007,64,,Week 8,8,"Scale, Lower Extremities",SCLEX,12,,1,2,-1,-50,,51-71 DAYS,57,7,51,71,DAYS,,Y,,,,,1,2
BBC,BBC-10-152,152,10,20,ARM C,3,ARM C,3,Y,Y,Y,Y,08JAN2007,04APR2007,12,WEEK 12,2007-04-04,04APR2007,87,,Week 12,12,"Scale, Lower Extremities",SCLEX,12,,0,2,-2,-100,,72-99 DAYS,85,2,72,99,DAYS,,Y,,,,,0,2
BBC,BBC-10-152,152,10,21,ARM C,3,ARM C,3,Y,Y,Y,Y,08JAN2007,04APR2007,16,WEEK 16,2007-04-30,30APR2007,113,,Week 16,16,"Scale, Lower Extremities",SCLEX,12,,0,2,-2,-100,,22-36 DAYS POST-LAST-DOSE,115,2,108,122,DAYS,,,,,,,0,2
BBC,BBC-10-152,152,10,78,ARM C,3,ARM C,3,Y,Y,Y,Y,08JAN2007,04APR2007,1,DAY 1,2007-01-08,08JAN2007,1,,Day 1 Baseline,0,Area Adjusted Psoriasis Area and Severity Index,PASISCOR,13,DERIVED,7,7,,,,,,,,,,Y,Y,,,,,,7
BBC,BBC-10-152,152,10,79,ARM C,3,ARM C,3,Y,Y,Y,Y,08JAN2007,04APR2007,2,WEEK 2,2007-01-23,23JAN2007,16,,Week 2,2,Area Adjusted Psoriasis Area and Severity Index,PASISCOR,13,DERIVED,6.9,7,-0.1,-1.4,,8-22 DAYS,15,1,8,22,DAYS,,Y,,,,,6.9,7
BBC,BBC-10-152,152,10,78,ARM C,3,ARM C,3,Y,Y,Y,Y,08JAN2007,04APR2007,4,WEEK 4,,,,,Week 4,4,Area Adjusted Psoriasis Area and Severity Index,PASISCOR,13,,6.9,7,,,LOCF,,,,,,,,Y,,,,,6.9,7
BBC,BBC-10-152,152,10,80,ARM C,3,ARM C,3,Y,Y,Y,Y,08JAN2007,04APR2007,4,WEEK 4,2007-02-13,13FEB2007,37,,Week 6,6,Area Adjusted Psoriasis Area and Severity Index,PASISCOR,13,DERIVED,2.6,7,-4.4,-62.9,,37-50 DAYS,43,6,37,50,DAYS,,,,,Improvement in AAPASI score from baseline of at least 50%,Y,2.6,7
BBC,BBC-10-152,152,10,81,ARM C,3,ARM C,3,Y,Y,Y,Y,08JAN2007,04APR2007,6,WEEK 6,2007-02-23,23FEB2007,47,,Week 6,6,Area Adjusted Psoriasis Area and Severity Index,PASISCOR,13,DERIVED,4.7,7,-2.3,-32.9,,37-50 DAYS,43,4,37,50,DAYS,,Y,,,,,4.7,7
BBC,BBC-10-152,152,10,82,ARM C,3,ARM C,3,Y,Y,Y,Y,08JAN2007,04APR2007,8,WEEK 8,2007-03-12,12MAR2007,64,,Week 8,8,Area Adjusted Psoriasis Area and Severity Index,PASISCOR,13,DERIVED,3.7,7,-3.3,-47.1,,51-71 DAYS,57,7,51,71,DAYS,,Y,,,,,3.7,7
BBC,BBC-10-152,152,10,83,ARM C,3,ARM C,3,Y,Y,Y,Y,08JAN2007,04APR2007,12,WEEK 12,2007-04-04,04APR2007,87,,Week 12,12,Area Adjusted Psoriasis Area and Severity Index,PASISCOR,13,DERIVED,1.6,7,-5.4,-77.1,,72-99 DAYS,85,2,72,99,DAYS,,Y,Improvement in AAPASI score from baseline of at least 75%,Y,Improvement in AAPASI score from baseline of at least 50%,Y,1.6,7
BBC,BBC-10-152,152,10,84,ARM C,3,ARM C,3,Y,Y,Y,Y,08JAN2007,04APR2007,16,WEEK 16,2007-04-30,30APR2007,113,,Week 16,16,Area Adjusted Psoriasis Area and Severity Index,PASISCOR,13,DERIVED,1.3,7,-5.7,-81.4,,22-36 DAYS POST-LAST-DOSE,115,2,108,122,DAYS,,,Improvement in AAPASI score from baseline of at least 75%,Y,Improvement in AAPASI score from baseline of at least 50%,Y,1.3,7
BBC,BBC-11-048,048,11,57,ARM B,2,ARM B,2,Y,Y,Y,Y,18JAN2007,09APR2007,1,DAY 1,2007-01-18,18JAN2007,1,,Day 1 Baseline,0,"Area Score, Upper Extremities",ASUEX,1,,1,1,,,,,,,,,,Y,Y,,,,,,1
BBC,BBC-11-048,048,11,58,ARM B,2,ARM B,2,Y,Y,Y,Y,18JAN2007,09APR2007,2,WEEK 2,2007-02-01,01FEB2007,15,,Week 2,2,"Area Score, Upper Extremities",ASUEX,1,,1,1,0,0,,8-22 DAYS,15,0,8,22,DAYS,,Y,,,,,1,1
BBC,BBC-11-048,048,11,59,ARM B,2,ARM B,2,Y,Y,Y,Y,18JAN2007,09APR2007,4,WEEK 4,2007-02-14,14FEB2007,28,,Week 4,4,"Area Score, Upper Extremities",ASUEX,1,,1,1,0,0,,23-36 DAYS,29,1,23,36,DAYS,,Y,,,,,1,1
BBC,BBC-11-048,048,11,60,ARM B,2,ARM B,2,Y,Y,Y,Y,18JAN2007,09APR2007,6,WEEK 6,2007-03-01,01MAR2007,43,,Week 6,6,"Area Score, Upper Extremities",ASUEX,1,,1,1,0,0,,37-50 DAYS,43,0,37,50,DAYS,,Y,,,,,1,1
BBC,BBC-11-048,048,11,61,ARM B,2,ARM B,2,Y,Y,Y,Y,18JAN2007,09APR2007,8,WEEK 8,2007-03-15,15MAR2007,57,,Week 8,8,"Area Score, Upper Extremities",ASUEX,1,,1,1,0,0,,51-71 DAYS,57,0,51,71,DAYS,,Y,,,,,1,1
BBC,BBC-11-048,048,11,62,ARM B,2,ARM B,2,Y,Y,Y,Y,18JAN2007,09APR2007,12,WEEK 12,2007-04-10,10APR2007,83,,Week 12,12,"Area Score, Upper Extremities",ASUEX,1,,1,1,0,0,,72-99 DAYS,85,2,72,99,DAYS,,Y,,,,,1,1
BBC,BBC-11-048,048,11,63,ARM B,2,ARM B,2,Y,Y,Y,Y,18JAN2007,09APR2007,16,WEEK 16,2007-05-08,08MAY2007,111,,Week 16,16,"Area Score, Upper Extremities",ASUEX,1,,1,1,0,0,,22-36 DAYS POST-LAST-DOSE,110,1,103,117,DAYS,,,,,,,1,1
BBC,BBC-11-048,048,11,29,ARM B,2,ARM B,2,Y,Y,Y,Y,18JAN2007,09APR2007,1,DAY 1,2007-01-18,18JAN2007,1,,Day 1 Baseline,0,"Area Score, Trunk",ASTRUNK,2,,0,0,,,,,,,,,,Y,Y,,,,,,0
BBC,BBC-11-048,048,11,30,ARM B,2,ARM B,2,Y,Y,Y,Y,18JAN2007,09APR2007,2,WEEK 2,2007-02-01,01FEB2007,15,,Week 2,2,"Area Score, Trunk",ASTRUNK,2,,0,0,0,,,8-22 DAYS,15,0,8,22,DAYS,,Y,,,,,0,0
BBC,BBC-11-048,048,11,31,ARM B,2,ARM B,2,Y,Y,Y,Y,18JAN2007,09APR2007,4,WEEK 4,2007-02-14,14FEB2007,28,,Week 4,4,"Area Score, Trunk",ASTRUNK,2,,0,0,0,,,23-36 DAYS,29,1,23,36,DAYS,,Y,,,,,0,0
BBC,BBC-11-048,048,11,32,ARM B,2,ARM B,2,Y,Y,Y,Y,18JAN2007,09APR2007,6,WEEK 6,2007-03-01,01MAR2007,43,,Week 6,6,"Area Score, Trunk",ASTRUNK,2,,0,0,0,,,37-50 DAYS,43,0,37,50,DAYS,,Y,,,,,0,0
BBC,BBC-11-048,048,11,33,ARM B,2,ARM B,2,Y,Y,Y,Y,18JAN2007,09APR2007,8,WEEK 8,2007-03-15,15MAR2007,57,,Week 8,8,"Area Score, Trunk",ASTRUNK,2,,0,0,0,,,51-71 DAYS,57,0,51,71,DAYS,,Y,,,,,0,0
BBC,BBC-11-048,048,11,34,ARM B,2,ARM B,2,Y,Y,Y,Y,18JAN2007,09APR2007,12,WEEK 12,2007-04-10,10APR2007,83,,Week 12,12,"Area Score, Trunk",ASTRUNK,2,,0,0,0,,,72-99 DAYS,85,2,72,99,DAYS,,Y,,,,,0,0
BBC,BBC-11-048,048,11,35,ARM B,2,ARM B,2,Y,Y,Y,Y,18JAN2007,09APR2007,16,WEEK 16,2007-05-08,08MAY2007,111,,Week 16,16,"Area Score, Trunk",ASTRUNK,2,,0,0,0,,,22-36 DAYS POST-LAST-DOSE,110,1,103,117,DAYS,,,,,,,0,0
BBC,BBC-11-048,048,11,1,ARM B,2,ARM B,2,Y,Y,Y,Y,18JAN2007,09APR2007,1,DAY 1,2007-01-18,18JAN2007,1,,Day 1 Baseline,0,"Area Score, Lower Extremities",ASLEX,3,,0,0,,,,,,,,,,Y,Y,,,,,,0
BBC,BBC-11-048,048,11,2,ARM B,2,ARM B,2,Y,Y,Y,Y,18JAN2007,09APR2007,2,WEEK 2,2007-02-01,01FEB2007,15,,Week 2,2,"Area Score, Lower Extremities",ASLEX,3,,0,0,0,,,8-22 DAYS,15,0,8,22,DAYS,,Y,,,,,0,0
BBC,BBC-11-048,048,11,3,ARM B,2,ARM B,2,Y,Y,Y,Y,18JAN2007,09APR2007,4,WEEK 4,2007-02-14,14FEB2007,28,,Week 4,4,"Area Score, Lower Extremities",ASLEX,3,,0,0,0,,,23-36 DAYS,29,1,23,36,DAYS,,Y,,,,,0,0
BBC,BBC-11-048,048,11,4,ARM B,2,ARM B,2,Y,Y,Y,Y,18JAN2007,09APR2007,6,WEEK 6,2007-03-01,01MAR2007,43,,Week 6,6,"Area Score, Lower Extremities",ASLEX,3,,0,0,0,,,37-50 DAYS,43,0,37,50,DAYS,,Y,,,,,0,0
BBC,BBC-11-048,048,11,5,ARM B,2,ARM B,2,Y,Y,Y,Y,18JAN2007,09APR2007,8,WEEK 8,2007-03-15,15MAR2007,57,,Week 8,8,"Area Score, Lower Extremities",ASLEX,3,,1,0,1,,,51-71 DAYS,57,0,51,71,DAYS,,Y,,,,,1,0
BBC,BBC-11-048,048,11,6,ARM B,2,ARM B,2,Y,Y,Y,Y,18JAN2007,09APR2007,12,WEEK 12,2007-04-10,10APR2007,83,,Week 12,12,"Area Score, Lower Extremities",ASLEX,3,,0,0,0,,,72-99 DAYS,85,2,72,99,DAYS,,Y,,,,,0,0
BBC,BBC-11-048,048,11,7,ARM B,2,ARM B,2,Y,Y,Y,Y,18JAN2007,09APR2007,16,WEEK 16,2007-05-08,08MAY2007,111,,Week 16,16,"Area Score, Lower Extremities",ASLEX,3,,1,0,1,,,22-36 DAYS POST-LAST-DOSE,110,1,103,117,DAYS,,,,,,,1,0
BBC,BBC-11-048,048,11,64,ARM B,2,ARM B,2,Y,Y,Y,Y,18JAN2007,09APR2007,1,DAY 1,2007-01-18,18JAN2007,1,,Day 1 Baseline,0,"Erythema, Upper Extremities",ERUEX,4,,2,2,,,,,,,,,,Y,Y,,,,,,2
BBC,BBC-11-048,048,11,65,ARM B,2,ARM B,2,Y,Y,Y,Y,18JAN2007,09APR2007,2,WEEK 2,2007-02-01,01FEB2007,15,,Week 2,2,"Erythema, Upper Extremities",ERUEX,4,,2,2,0,0,,8-22 DAYS,15,0,8,22,DAYS,,Y,,,,,2,2
BBC,BBC-11-048,048,11,66,ARM B,2,ARM B,2,Y,Y,Y,Y,18JAN2007,09APR2007,4,WEEK 4,2007-02-14,14FEB2007,28,,Week 4,4,"Erythema, Upper Extremities",ERUEX,4,,2,2,0,0,,23-36 DAYS,29,1,23,36,DAYS,,Y,,,,,2,2
BBC,BBC-11-048,048,11,67,ARM B,2,ARM B,2,Y,Y,Y,Y,18JAN2007,09APR2007,6,WEEK 6,2007-03-01,01MAR2007,43,,Week 6,6,"Erythema, Upper Extremities",ERUEX,4,,1,2,-1,-50,,37-50 DAYS,43,0,37,50,DAYS,,Y,,,,,1,2
BBC,BBC-11-048,048,11,68,ARM B,2,ARM B,2,Y,Y,Y,Y,18JAN2007,09APR2007,8,WEEK 8,2007-03-15,15MAR2007,57,,Week 8,8,"Erythema, Upper Extremities",ERUEX,4,,1,2,-1,-50,,51-71 DAYS,57,0,51,71,DAYS,,Y,,,,,1,2
BBC,BBC-11-048,048,11,69,ARM B,2,ARM B,2,Y,Y,Y,Y,18JAN2007,09APR2007,12,WEEK 12,2007-04-10,10APR2007,83,,Week 12,12,"Erythema, Upper Extremities",ERUEX,4,,2,2,0,0,,72-99 DAYS,85,2,72,99,DAYS,,Y,,,,,2,2
BBC,BBC-11-048,048,11,70,ARM B,2,ARM B,2,Y,Y,Y,Y,18JAN2007,09APR2007,16,WEEK 16,2007-05-08,08MAY2007,111,,Week 16,16,"Erythema, Upper Extremities",ERUEX,4,,1,2,-1,-50,,22-36 DAYS POST-LAST-DOSE,110,1,103,117,DAYS,,,,,,,1,2
BBC,BBC-11-048,048,11,36,ARM B,2,ARM B,2,Y,Y,Y,Y,18JAN2007,09APR2007,1,DAY 1,2007-01-18,18JAN2007,1,,Day 1 Baseline,0,"Erythema, Trunk",ERTRUNK,5,,0,0,,,,,,,,,,Y,Y,,,,,,0
BBC,BBC-11-048,048,11,37,ARM B,2,ARM B,2,Y,Y,Y,Y,18JAN2007,09APR2007,2,WEEK 2,2007-02-01,01FEB2007,15,,Week 2,2,"Erythema, Trunk",ERTRUNK,5,,0,0,0,,,8-22 DAYS,15,0,8,22,DAYS,,Y,,,,,0,0
BBC,BBC-11-048,048,11,38,ARM B,2,ARM B,2,Y,Y,Y,Y,18JAN2007,09APR2007,4,WEEK 4,2007-02-14,14FEB2007,28,,Week 4,4,"Erythema, Trunk",ERTRUNK,5,,0,0,0,,,23-36 DAYS,29,1,23,36,DAYS,,Y,,,,,0,0
BBC,BBC-11-048,048,11,39,ARM B,2,ARM B,2,Y,Y,Y,Y,18JAN2007,09APR2007,6,WEEK 6,2007-03-01,01MAR2007,43,,Week 6,6,"Erythema, Trunk",ERTRUNK,5,,0,0,0,,,37-50 DAYS,43,0,37,50,DAYS,,Y,,,,,0,0
BBC,BBC-11-048,048,11,40,ARM B,2,ARM B,2,Y,Y,Y,Y,18JAN2007,09APR2007,8,WEEK 8,2007-03-15,15MAR2007,57,,Week 8,8,"Erythema, Trunk",ERTRUNK,5,,0,0,0,,,51-71 DAYS,57,0,51,71,DAYS,,Y,,,,,0,0
BBC,BBC-11-048,048,11,41,ARM B,2,ARM B,2,Y,Y,Y,Y,18JAN2007,09APR2007,12,WEEK 12,2007-04-10,10APR2007,83,,Week 12,12,"Erythema, Trunk",ERTRUNK,5,,0,0,0,,,72-99 DAYS,85,2,72,99,DAYS,,Y,,,,,0,0
BBC,BBC-11-048,048,11,42,ARM B,2,ARM B,2,Y,Y,Y,Y,18JAN2007,09APR2007,16,WEEK 16,2007-05-08,08MAY2007,111,,Week 16,16,"Erythema, Trunk",ERTRUNK,5,,0,0,0,,,22-36 DAYS POST-LAST-DOSE,110,1,103,117,DAYS,,,,,,,0,0
BBC,BBC-11-048,048,11,8,ARM B,2,ARM B,2,Y,Y,Y,Y,18JAN2007,09APR2007,1,DAY 1,2007-01-18,18JAN2007,1,,Day 1 Baseline,0,"Erythema, Lower Extremities",ERLEX,6,,0,0,,,,,,,,,,Y,Y,,,,,,0
BBC,BBC-11-048,048,11,9,ARM B,2,ARM B,2,Y,Y,Y,Y,18JAN2007,09APR2007,2,WEEK 2,2007-02-01,01FEB2007,15,,Week 2,2,"Erythema, Lower Extremities",ERLEX,6,,0,0,0,,,8-22 DAYS,15,0,8,22,DAYS,,Y,,,,,0,0
BBC,BBC-11-048,048,11,10,ARM B,2,ARM B,2,Y,Y,Y,Y,18JAN2007,09APR2007,4,WEEK 4,2007-02-14,14FEB2007,28,,Week 4,4,"Erythema, Lower Extremities",ERLEX,6,,0,0,0,,,23-36 DAYS,29,1,23,36,DAYS,,Y,,,,,0,0
BBC,BBC-11-048,048,11,11,ARM B,2,ARM B,2,Y,Y,Y,Y,18JAN2007,09APR2007,6,WEEK 6,2007-03-01,01MAR2007,43,,Week 6,6,"Erythema, Lower Extremities",ERLEX,6,,0,0,0,,,37-50 DAYS,43,0,37,50,DAYS,,Y,,,,,0,0
BBC,BBC-11-048,048,11,12,ARM B,2,ARM B,2,Y,Y,Y,Y,18JAN2007,09APR2007,8,WEEK 8,2007-03-15,15MAR2007,57,,Week 8,8,"Erythema, Lower Extremities",ERLEX,6,,2,0,2,,,51-71 DAYS,57,0,51,71,DAYS,,Y,,,,,2,0
BBC,BBC-11-048,048,11,13,ARM B,2,ARM B,2,Y,Y,Y,Y,18JAN2007,09APR2007,12,WEEK 12,2007-04-10,10APR2007,83,,Week 12,12,"Erythema, Lower Extremities",ERLEX,6,,0,0,0,,,72-99 DAYS,85,2,72,99,DAYS,,Y,,,,,0,0
BBC,BBC-11-048,048,11,14,ARM B,2,ARM B,2,Y,Y,Y,Y,18JAN2007,09APR2007,16,WEEK 16,2007-05-08,08MAY2007,111,,Week 16,16,"Erythema, Lower Extremities",ERLEX,6,,2,0,2,,,22-36 DAYS POST-LAST-DOSE,110,1,103,117,DAYS,,,,,,,2,0
BBC,BBC-11-048,048,11,78,ARM B,2,ARM B,2,Y,Y,Y,Y,18JAN2007,09APR2007,1,DAY 1,2007-01-18,18JAN2007,1,,Day 1 Baseline,0,"Thickness, Upper Extremities",THKUEX,7,,3,3,,,,,,,,,,Y,Y,,,,,,3
BBC,BBC-11-048,048,11,79,ARM B,2,ARM B,2,Y,Y,Y,Y,18JAN2007,09APR2007,2,WEEK 2,2007-02-01,01FEB2007,15,,Week 2,2,"Thickness, Upper Extremities",THKUEX,7,,3,3,0,0,,8-22 DAYS,15,0,8,22,DAYS,,Y,,,,,3,3
BBC,BBC-11-048,048,11,80,ARM B,2,ARM B,2,Y,Y,Y,Y,18JAN2007,09APR2007,4,WEEK 4,2007-02-14,14FEB2007,28,,Week 4,4,"Thickness, Upper Extremities",THKUEX,7,,2,3,-1,-33.3,,23-36 DAYS,29,1,23,36,DAYS,,Y,,,,,2,3
BBC,BBC-11-048,048,11,81,ARM B,2,ARM B,2,Y,Y,Y,Y,18JAN2007,09APR2007,6,WEEK 6,2007-03-01,01MAR2007,43,,Week 6,6,"Thickness, Upper Extremities",THKUEX,7,,3,3,0,0,,37-50 DAYS,43,0,37,50,DAYS,,Y,,,,,3,3
BBC,BBC-11-048,048,11,82,ARM B,2,ARM B,2,Y,Y,Y,Y,18JAN2007,09APR2007,8,WEEK 8,2007-03-15,15MAR2007,57,,Week 8,8,"Thickness, Upper Extremities",THKUEX,7,,2,3,-1,-33.3,,51-71 DAYS,57,0,51,71,DAYS,,Y,,,,,2,3
BBC,BBC-11-048,048,11,83,ARM B,2,ARM B,2,Y,Y,Y,Y,18JAN2007,09APR2007,12,WEEK 12,2007-04-10,10APR2007,83,,Week 12,12,"Thickness, Upper Extremities",THKUEX,7,,3,3,0,0,,72-99 DAYS,85,2,72,99,DAYS,,Y,,,,,3,3
BBC,BBC-11-048,048,11,84,ARM B,2,ARM B,2,Y,Y,Y,Y,18JAN2007,09APR2007,16,WEEK 16,2007-05-08,08MAY2007,111,,Week 16,16,"Thickness, Upper Extremities",THKUEX,7,,3,3,0,0,,22-36 DAYS POST-LAST-DOSE,110,1,103,117,DAYS,,,,,,,3,3
BBC,BBC-11-048,048,11,50,ARM B,2,ARM B,2,Y,Y,Y,Y,18JAN2007,09APR2007,1,DAY 1,2007-01-18,18JAN2007,1,,Day 1 Baseline,0,"Thickness, Trunk",THKTRUNK,8,,0,0,,,,,,,,,,Y,Y,,,,,,0
BBC,BBC-11-048,048,11,51,ARM B,2,ARM B,2,Y,Y,Y,Y,18JAN2007,09APR2007,2,WEEK 2,2007-02-01,01FEB2007,15,,Week 2,2,"Thickness, Trunk",THKTRUNK,8,,0,0,0,,,8-22 DAYS,15,0,8,22,DAYS,,Y,,,,,0,0
BBC,BBC-11-048,048,11,52,ARM B,2,ARM B,2,Y,Y,Y,Y,18JAN2007,09APR2007,4,WEEK 4,2007-02-14,14FEB2007,28,,Week 4,4,"Thickness, Trunk",THKTRUNK,8,,0,0,0,,,23-36 DAYS,29,1,23,36,DAYS,,Y,,,,,0,0
BBC,BBC-11-048,048,11,53,ARM B,2,ARM B,2,Y,Y,Y,Y,18JAN2007,09APR2007,6,WEEK 6,2007-03-01,01MAR2007,43,,Week 6,6,"Thickness, Trunk",THKTRUNK,8,,0,0,0,,,37-50 DAYS,43,0,37,50,DAYS,,Y,,,,,0,0
BBC,BBC-11-048,048,11,54,ARM B,2,ARM B,2,Y,Y,Y,Y,18JAN2007,09APR2007,8,WEEK 8,2007-03-15,15MAR2007,57,,Week 8,8,"Thickness, Trunk",THKTRUNK,8,,0,0,0,,,51-71 DAYS,57,0,51,71,DAYS,,Y,,,,,0,0
BBC,BBC-11-048,048,11,55,ARM B,2,ARM B,2,Y,Y,Y,Y,18JAN2007,09APR2007,12,WEEK 12,2007-04-10,10APR2007,83,,Week 12,12,"Thickness, Trunk",THKTRUNK,8,,0,0,0,,,72-99 DAYS,85,2,72,99,DAYS,,Y,,,,,0,0
BBC,BBC-11-048,048,11,56,ARM B,2,ARM B,2,Y,Y,Y,Y,18JAN2007,09APR2007,16,WEEK 16,2007-05-08,08MAY2007,111,,Week 16,16,"Thickness, Trunk",THKTRUNK,8,,0,0,0,,,22-36 DAYS POST-LAST-DOSE,110,1,103,117,DAYS,,,,,,,0,0
BBC,BBC-11-048,048,11,22,ARM B,2,ARM B,2,Y,Y,Y,Y,18JAN2007,09APR2007,1,DAY 1,2007-01-18,18JAN2007,1,,Day 1 Baseline,0,"Thickness, Lower Extremities",THKLEX,9,,0,0,,,,,,,,,,Y,Y,,,,,,0
BBC,BBC-11-048,048,11,23,ARM B,2,ARM B,2,Y,Y,Y,Y,18JAN2007,09APR2007,2,WEEK 2,2007-02-01,01FEB2007,15,,Week 2,2,"Thickness, Lower Extremities",THKLEX,9,,0,0,0,,,8-22 DAYS,15,0,8,22,DAYS,,Y,,,,,0,0
BBC,BBC-11-048,048,11,24,ARM B,2,ARM B,2,Y,Y,Y,Y,18JAN2007,09APR2007,4,WEEK 4,2007-02-14,14FEB2007,28,,Week 4,4,"Thickness, Lower Extremities",THKLEX,9,,0,0,0,,,23-36 DAYS,29,1,23,36,DAYS,,Y,,,,,0,0
BBC,BBC-11-048,048,11,25,ARM B,2,ARM B,2,Y,Y,Y,Y,18JAN2007,09APR2007,6,WEEK 6,2007-03-01,01MAR2007,43,,Week 6,6,"Thickness, Lower Extremities",THKLEX,9,,0,0,0,,,37-50 DAYS,43,0,37,50,DAYS,,Y,,,,,0,0
BBC,BBC-11-048,048,11,26,ARM B,2,ARM B,2,Y,Y,Y,Y,18JAN2007,09APR2007,8,WEEK 8,2007-03-15,15MAR2007,57,,Week 8,8,"Thickness, Lower Extremities",THKLEX,9,,1,0,1,,,51-71 DAYS,57,0,51,71,DAYS,,Y,,,,,1,0
BBC,BBC-11-048,048,11,27,ARM B,2,ARM B,2,Y,Y,Y,Y,18JAN2007,09APR2007,12,WEEK 12,2007-04-10,10APR2007,83,,Week 12,12,"Thickness, Lower Extremities",THKLEX,9,,0,0,0,,,72-99 DAYS,85,2,72,99,DAYS,,Y,,,,,0,0
BBC,BBC-11-048,048,11,28,ARM B,2,ARM B,2,Y,Y,Y,Y,18JAN2007,09APR2007,16,WEEK 16,2007-05-08,08MAY2007,111,,Week 16,16,"Thickness, Lower Extremities",THKLEX,9,,1,0,1,,,22-36 DAYS POST-LAST-DOSE,110,1,103,117,DAYS,,,,,,,1,0
BBC,BBC-11-048,048,11,71,ARM B,2,ARM B,2,Y,Y,Y,Y,18JAN2007,09APR2007,1,DAY 1,2007-01-18,18JAN2007,1,,Day 1 Baseline,0,"Scale, Upper Extremities",SCUEX,10,,1,1,,,,,,,,,,Y,Y,,,,,,1
BBC,BBC-11-048,048,11,72,ARM B,2,ARM B,2,Y,Y,Y,Y,18JAN2007,09APR2007,2,WEEK 2,2007-02-01,01FEB2007,15,,Week 2,2,"Scale, Upper Extremities",SCUEX,10,,1,1,0,0,,8-22 DAYS,15,0,8,22,DAYS,,Y,,,,,1,1
BBC,BBC-11-048,048,11,73,ARM B,2,ARM B,2,Y,Y,Y,Y,18JAN2007,09APR2007,4,WEEK 4,2007-02-14,14FEB2007,28,,Week 4,4,"Scale, Upper Extremities",SCUEX,10,,1,1,0,0,,23-36 DAYS,29,1,23,36,DAYS,,Y,,,,,1,1
BBC,BBC-11-048,048,11,74,ARM B,2,ARM B,2,Y,Y,Y,Y,18JAN2007,09APR2007,6,WEEK 6,2007-03-01,01MAR2007,43,,Week 6,6,"Scale, Upper Extremities",SCUEX,10,,1,1,0,0,,37-50 DAYS,43,0,37,50,DAYS,,Y,,,,,1,1
BBC,BBC-11-048,048,11,75,ARM B,2,ARM B,2,Y,Y,Y,Y,18JAN2007,09APR2007,8,WEEK 8,2007-03-15,15MAR2007,57,,Week 8,8,"Scale, Upper Extremities",SCUEX,10,,1,1,0,0,,51-71 DAYS,57,0,51,71,DAYS,,Y,,,,,1,1
BBC,BBC-11-048,048,11,76,ARM B,2,ARM B,2,Y,Y,Y,Y,18JAN2007,09APR2007,12,WEEK 12,2007-04-10,10APR2007,83,,Week 12,12,"Scale, Upper Extremities",SCUEX,10,,1,1,0,0,,72-99 DAYS,85,2,72,99,DAYS,,Y,,,,,1,1
BBC,BBC-11-048,048,11,77,ARM B,2,ARM B,2,Y,Y,Y,Y,18JAN2007,09APR2007,16,WEEK 16,2007-05-08,08MAY2007,111,,Week 16,16,"Scale, Upper Extremities",SCUEX,10,,1,1,0,0,,22-36 DAYS POST-LAST-DOSE,110,1,103,117,DAYS,,,,,,,1,1
