STUDYID,USUBJID,SUBJID,SITEID,LBSEQ,TRTP,TRTPN,TRTA,TRTAN,RANDFL,SAFFL,MITTFL,PPROTFL,TRTSDT,TRTEDT,ADT,ADY,ADTF,AVISIT,AVISITN,PARAM,PARAMCD,PARAMN,PARCAT1,AVAL,AVALC,BASE,BASEC,ANRIND,BNRIND,AWRANGE,AWTARGET,AWTDIFF,AWLO,AWHI,AWU,ABLFL,ANL01FL
BBC,BBC-10-041,041,10,13,ARM B,2,ARM B,2,Y,N,N,N,,,20DEC2006,,,,,Total Calcium (mg/dL),CA,1,CHEMISTRY,9.3,9.3,,,Normal,,,,,,,,,
BBC,BBC-10-041,041,10,14,ARM B,2,ARM B,2,Y,N,N,N,,,10JAN2007,,,,,Total Calcium (mg/dL),CA,1,CHEMISTRY,9.4,9.4,,,Normal,,,,,,,,,
BBC,BBC-10-041,041,10,23,ARM B,2,ARM B,2,Y,N,N,N,,,20DEC2006,,,,,Potassium (mmol/L),K,2,CHEMISTRY,4,4.0,,,Normal,,,,,,,,,
BBC,BBC-10-041,041,10,24,ARM B,2,ARM B,2,Y,N,N,N,,,10JAN2007,,,,,Potassium (mmol/L),K,2,CHEMISTRY,4,4.0,,,Normal,,,,,,,,,
BBC,BBC-10-041,041,10,17,ARM B,2,ARM B,2,Y,N,N,N,,,20DEC2006,,,,,Chloride (mmol/L),CL,3,CHEMISTRY,106,106,,,Normal,,,,,,,,,
BBC,BBC-10-041,041,10,18,ARM B,2,ARM B,2,Y,N,N,N,,,10JAN2007,,,,,Chloride (mmol/L),CL,3,CHEMISTRY,104,104,,,Normal,,,,,,,,,
BBC,BBC-10-041,041,10,9,ARM B,2,ARM B,2,Y,N,N,N,,,20DEC2006,,,,,Total Bilirubin (mg/dL),BILI,4,CHEMISTRY,0.6,0.6,,,Normal,,,,,,,,,
BBC,BBC-10-041,041,10,10,ARM B,2,ARM B,2,Y,N,N,N,,,10JAN2007,,,,,Total Bilirubin (mg/dL),BILI,4,CHEMISTRY,1,1.0,,,Normal,,,,,,,,,
BBC,BBC-10-041,041,10,31,ARM B,2,ARM B,2,Y,N,N,N,,,20DEC2006,,,,,Sodium (mmol/L),SODIUM,5,CHEMISTRY,140,140,,,Normal,,,,,,,,,
BBC,BBC-10-041,041,10,32,ARM B,2,ARM B,2,Y,N,N,N,,,10JAN2007,,,,,Sodium (mmol/L),SODIUM,5,CHEMISTRY,137,137,,,Normal,,,,,,,,,
BBC,BBC-10-041,041,10,7,ARM B,2,ARM B,2,Y,N,N,N,,,20DEC2006,,,,,"Aspartate Aminotransferase, AST (U/L)",AST,6,CHEMISTRY,36,36,,,High,,,,,,,,,
BBC,BBC-10-041,041,10,8,ARM B,2,ARM B,2,Y,N,N,N,,,10JAN2007,,,,,"Aspartate Aminotransferase, AST (U/L)",AST,6,CHEMISTRY,29,29,,,Normal,,,,,,,,,
BBC,BBC-10-041,041,10,5,ARM B,2,ARM B,2,Y,N,N,N,,,20DEC2006,,,,,"Alanine Aminotransferase, ALT (U/L)",ALT,7,CHEMISTRY,63,63,,,High,,,,,,,,,
BBC,BBC-10-041,041,10,6,ARM B,2,ARM B,2,Y,N,N,N,,,10JAN2007,,,,,"Alanine Aminotransferase, ALT (U/L)",ALT,7,CHEMISTRY,50,50,,,High,,,,,,,,,
BBC,BBC-10-041,041,10,11,ARM B,2,ARM B,2,Y,N,N,N,,,20DEC2006,,,,,"Blood Urea Nitrogen, BUN (mg/dL)",BUN,8,CHEMISTRY,10,10,,,Normal,,,,,,,,,
BBC,BBC-10-041,041,10,12,ARM B,2,ARM B,2,Y,N,N,N,,,10JAN2007,,,,,"Blood Urea Nitrogen, BUN (mg/dL)",BUN,8,CHEMISTRY,11,11,,,Normal,,,,,,,,,
BBC,BBC-10-041,041,10,21,ARM B,2,ARM B,2,Y,N,N,N,,,20DEC2006,,,,,Glucose (mg/dL),GLUC,9,CHEMISTRY,102,102,,,High,,,,,,,,,
BBC,BBC-10-041,041,10,22,ARM B,2,ARM B,2,Y,N,N,N,,,10JAN2007,,,,,Glucose (mg/dL),GLUC,9,CHEMISTRY,127,127,,,High,,,,,,,,,
BBC,BBC-10-041,041,10,3,ARM B,2,ARM B,2,Y,N,N,N,,,20DEC2006,,,,,Alkaline Phosphatase (U/L),ALP,10,CHEMISTRY,88,88,,,Normal,,,,,,,,,
BBC,BBC-10-041,041,10,4,ARM B,2,ARM B,2,Y,N,N,N,,,10JAN2007,,,,,Alkaline Phosphatase (U/L),ALP,10,CHEMISTRY,82,82,,,Normal,,,,,,,,,
BBC,BBC-10-041,041,10,35,ARM B,2,ARM B,2,Y,N,N,N,,,20DEC2006,,,,,Uric Acid (mg/dL),URATE,11,CHEMISTRY,5.8,5.8,,,Normal,,,,,,,,,
BBC,BBC-10-041,041,10,36,ARM B,2,ARM B,2,Y,N,N,N,,,10JAN2007,,,,,Uric Acid (mg/dL),URATE,11,CHEMISTRY,5.9,5.9,,,Normal,,,,,,,,,
BBC,BBC-10-041,041,10,27,ARM B,2,ARM B,2,Y,N,N,N,,,20DEC2006,,,,,Inorganic Phosphorus (mg/dL),PHOS,12,CHEMISTRY,3.4,3.4,,,Normal,,,,,,,,,
BBC,BBC-10-041,041,10,28,ARM B,2,ARM B,2,Y,N,N,N,,,10JAN2007,,,,,Inorganic Phosphorus (mg/dL),PHOS,12,CHEMISTRY,3.8,3.8,,,Normal,,,,,,,,,
BBC,BBC-10-041,041,10,1,ARM B,2,ARM B,2,Y,N,N,N,,,20DEC2006,,,,,Albumin (g/dL),ALB,13,CHEMISTRY,4.2,4.2,,,Normal,,,,,,,,,
BBC,BBC-10-041,041,10,2,ARM B,2,ARM B,2,Y,N,N,N,,,10JAN2007,,,,,Albumin (g/dL),ALB,13,CHEMISTRY,4.3,4.3,,,Normal,,,,,,,,,
BBC,BBC-10-041,041,10,29,ARM B,2,ARM B,2,Y,N,N,N,,,20DEC2006,,,,,Total Protein (g/dL),PROT,14,CHEMISTRY,6.9,6.9,,,Normal,,,,,,,,,
BBC,BBC-10-041,041,10,30,ARM B,2,ARM B,2,Y,N,N,N,,,10JAN2007,,,,,Total Protein (g/dL),PROT,14,CHEMISTRY,7.3,7.3,,,Normal,,,,,,,,,
BBC,BBC-10-041,041,10,25,ARM B,2,ARM B,2,Y,N,N,N,,,20DEC2006,,,,,Lipase (U/L),LIPASE,15,CHEMISTRY,40,40,,,Normal,,,,,,,,,
BBC,BBC-10-041,041,10,26,ARM B,2,ARM B,2,Y,N,N,N,,,10JAN2007,,,,,Lipase (U/L),LIPASE,15,CHEMISTRY,33,33,,,Normal,,,,,,,,,
BBC,BBC-10-041,041,10,15,ARM B,2,ARM B,2,Y,N,N,N,,,20DEC2006,,,,,Total Cholesterol (mg/dL),CHOL,16,CHEMISTRY,177,177,,,Normal,,,,,,,,,
BBC,BBC-10-041,041,10,16,ARM B,2,ARM B,2,Y,N,N,N,,,10JAN2007,,,,,Total Cholesterol (mg/dL),CHOL,16,CHEMISTRY,182,182,,,Normal,,,,,,,,,
BBC,BBC-10-041,041,10,33,ARM B,2,ARM B,2,Y,N,N,N,,,20DEC2006,,,,,Triglycerides (mg/dL),TRIG,17,CHEMISTRY,181,181,,,Normal,,,,,,,,,
BBC,BBC-10-041,041,10,34,ARM B,2,ARM B,2,Y,N,N,N,,,10JAN2007,,,,,Triglycerides (mg/dL),TRIG,17,CHEMISTRY,120,120,,,Normal,,,,,,,,,
BBC,BBC-10-041,041,10,19,ARM B,2,ARM B,2,Y,N,N,N,,,20DEC2006,,,,,Creatinine (mg/dL),CREAT,18,CHEMISTRY,0.9,0.9,,,Normal,,,,,,,,,
BBC,BBC-10-041,041,10,20,ARM B,2,ARM B,2,Y,N,N,N,,,10JAN2007,,,,,Creatinine (mg/dL),CREAT,18,CHEMISTRY,0.9,0.9,,,Normal,,,,,,,,,
BBC,BBC-10-041,041,10,57,ARM B,2,ARM B,2,Y,N,N,N,,,20DEC2006,,,,,Lymphocytes (10^9/L),LYM,19,HEMATOLOGY,2.62,2.62,,,Normal,,,,,,,,,
BBC,BBC-10-041,041,10,58,ARM B,2,ARM B,2,Y,N,N,N,,,10JAN2007,,,,,Lymphocytes (10^9/L),LYM,19,HEMATOLOGY,1.89,1.89,,,Normal,,,,,,,,,
BBC,BBC-10-041,041,10,67,ARM B,2,ARM B,2,Y,N,N,N,,,20DEC2006,,,,,Monocytes (10^9/L),MONO,20,HEMATOLOGY,0.54,0.54,,,Normal,,,,,,,,,
BBC,BBC-10-041,041,10,68,ARM B,2,ARM B,2,Y,N,N,N,,,10JAN2007,,,,,Monocytes (10^9/L),MONO,20,HEMATOLOGY,0.46,0.46,,,Normal,,,,,,,,,
BBC,BBC-10-041,041,10,79,ARM B,2,ARM B,2,Y,N,N,N,,,20DEC2006,,,,,RBC Distribution Width (%),RDW,21,HEMATOLOGY,13.6,13.6,,,Normal,,,,,,,,,
BBC,BBC-10-041,041,10,80,ARM B,2,ARM B,2,Y,N,N,N,,,10JAN2007,,,,,RBC Distribution Width (%),RDW,21,HEMATOLOGY,13.6,13.6,,,Normal,,,,,,,,,
BBC,BBC-10-041,041,10,75,ARM B,2,ARM B,2,Y,N,N,N,,,20DEC2006,,,,,Platelet Count (10^9/L),PLAT,22,HEMATOLOGY,262,262,,,Normal,,,,,,,,,
BBC,BBC-10-041,041,10,76,ARM B,2,ARM B,2,Y,N,N,N,,,10JAN2007,,,,,Platelet Count (10^9/L),PLAT,22,HEMATOLOGY,191,191,,,Normal,,,,,,,,,
BBC,BBC-10-041,041,10,71,ARM B,2,ARM B,2,Y,N,N,N,,,20DEC2006,,,,,Neutrophils (10^9/L),NEUT,23,HEMATOLOGY,5.77,5.77,,,Normal,,,,,,,,,
BBC,BBC-10-041,041,10,72,ARM B,2,ARM B,2,Y,N,N,N,,,10JAN2007,,,,,Neutrophils (10^9/L),NEUT,23,HEMATOLOGY,4.08,4.08,,,Normal,,,,,,,,,
BBC,BBC-10-041,041,10,49,ARM B,2,ARM B,2,Y,N,N,N,,,20DEC2006,,,,,Eosinophils (10^9/L),EOS,24,HEMATOLOGY,0.29,0.29,,,Normal,,,,,,,,,
BBC,BBC-10-041,041,10,50,ARM B,2,ARM B,2,Y,N,N,N,,,10JAN2007,,,,,Eosinophils (10^9/L),EOS,24,HEMATOLOGY,0.22,0.22,,,Normal,,,,,,,,,
BBC,BBC-10-041,041,10,45,ARM B,2,ARM B,2,Y,N,N,N,,,20DEC2006,,,,,Basophils (10^9/L),BASO,25,HEMATOLOGY,0.03,0.03,,,Normal,,,,,,,,,
BBC,BBC-10-041,041,10,46,ARM B,2,ARM B,2,Y,N,N,N,,,10JAN2007,,,,,Basophils (10^9/L),BASO,25,HEMATOLOGY,0.03,0.03,,,Normal,,,,,,,,,
BBC,BBC-10-041,041,10,81,ARM B,2,ARM B,2,Y,N,N,N,,,20DEC2006,,,,,Leukocytes (10^9/L),WBC,26,HEMATOLOGY,9.3,9.3,,,Normal,,,,,,,,,
BBC,BBC-10-041,041,10,82,ARM B,2,ARM B,2,Y,N,N,N,,,10JAN2007,,,,,Leukocytes (10^9/L),WBC,26,HEMATOLOGY,6.7,6.7,,,Normal,,,,,,,,,
BBC,BBC-10-041,041,10,77,ARM B,2,ARM B,2,Y,N,N,N,,,20DEC2006,,,,,Erythrocytes (10^12/L),RBC,27,HEMATOLOGY,4.61,4.61,,,Normal,,,,,,,,,
BBC,BBC-10-041,041,10,78,ARM B,2,ARM B,2,Y,N,N,N,,,10JAN2007,,,,,Erythrocytes (10^12/L),RBC,27,HEMATOLOGY,4.61,4.61,,,Normal,,,,,,,,,
BBC,BBC-10-041,041,10,55,ARM B,2,ARM B,2,Y,N,N,N,,,20DEC2006,,,,,Hemoglobin (g/dL),HGB,28,HEMATOLOGY,13.2,13.2,,,Normal,,,,,,,,,
BBC,BBC-10-041,041,10,56,ARM B,2,ARM B,2,Y,N,N,N,,,10JAN2007,,,,,Hemoglobin (g/dL),HGB,28,HEMATOLOGY,13.4,13.4,,,Normal,,,,,,,,,
BBC,BBC-10-041,041,10,53,ARM B,2,ARM B,2,Y,N,N,N,,,20DEC2006,,,,,Hematocrit (%),HCT,29,HEMATOLOGY,38.7,38.7,,,Normal,,,,,,,,,
BBC,BBC-10-041,041,10,54,ARM B,2,ARM B,2,Y,N,N,N,,,10JAN2007,,,,,Hematocrit (%),HCT,29,HEMATOLOGY,38.8,38.8,,,Normal,,,,,,,,,
BBC,BBC-10-041,041,10,65,ARM B,2,ARM B,2,Y,N,N,N,,,20DEC2006,,,,,Ery. Mean Corpuscular Volume (fL),MCV,30,HEMATOLOGY,84,84.0,,,Normal,,,,,,,,,
BBC,BBC-10-041,041,10,66,ARM B,2,ARM B,2,Y,N,N,N,,,10JAN2007,,,,,Ery. Mean Corpuscular Volume (fL),MCV,30,HEMATOLOGY,84.2,84.2,,,Normal,,,,,,,,,
BBC,BBC-10-041,041,10,61,ARM B,2,ARM B,2,Y,N,N,N,,,20DEC2006,,,,,Ery. Mean Corpuscular Hemoglobin (pg),MCH,31,HEMATOLOGY,28.6,28.6,,,Normal,,,,,,,,,
BBC,BBC-10-041,041,10,62,ARM B,2,ARM B,2,Y,N,N,N,,,10JAN2007,,,,,Ery. Mean Corpuscular Hemoglobin (pg),MCH,31,HEMATOLOGY,29,29.0,,,Normal,,,,,,,,,
BBC,BBC-10-041,041,10,63,ARM B,2,ARM B,2,Y,N,N,N,,,20DEC2006,,,,,Ery. Mean Corpuscular HGB Concentration (g/dL),MCHC,32,HEMATOLOGY,34,34.0,,,Normal,,,,,,,,,
BBC,BBC-10-041,041,10,64,ARM B,2,ARM B,2,Y,N,N,N,,,10JAN2007,,,,,Ery. Mean Corpuscular HGB Concentration (g/dL),MCHC,32,HEMATOLOGY,34.5,34.5,,,High,,,,,,,,,
BBC,BBC-10-041,041,10,89,ARM B,2,ARM B,2,Y,N,N,N,,,20DEC2006,,,,,Creatinine (mg/dL),CREACONC,33,URINALYSIS,155,155,,,,,,,,,,,,
BBC,BBC-10-041,041,10,90,ARM B,2,ARM B,2,Y,N,N,N,,,10JAN2007,,,,,Creatinine (mg/dL),CREACONC,33,URINALYSIS,183,183,,,,,,,,,,,,
BBC,BBC-10-041,041,10,85,ARM B,2,ARM B,2,Y,N,N,N,,,20DEC2006,,,,,Calcium (mg/L),CACONC,34,URINALYSIS,252,252.000000,,,,,,,,,,,,
BBC,BBC-10-041,041,10,86,ARM B,2,ARM B,2,Y,N,N,N,,,10JAN2007,,,,,Calcium (mg/L),CACONC,34,URINALYSIS,132,132.000000,,,,,,,,,,,,
BBC,BBC-10-041,041,10,87,ARM B,2,ARM B,2,Y,N,N,N,,,20DEC2006,,,,,Calcium/Creatinine Ratio,CACREAT,35,URINALYSIS,0.16,0.16,,,,,,,,,,,,
BBC,BBC-10-041,041,10,88,ARM B,2,ARM B,2,Y,N,N,N,,,10JAN2007,,,,,Calcium/Creatinine Ratio,CACREAT,35,URINALYSIS,0.07,0.07,,,,,,,,,,,,
BBC,BBC-10-041,041,10,105,ARM B,2,ARM B,2,Y,N,N,N,,,20DEC2006,,,,,Phosphate Concentration (mg/dL),PHOSCONC,36,URINALYSIS,72,72.0,,,,,,,,,,,,
BBC,BBC-10-041,041,10,106,ARM B,2,ARM B,2,Y,N,N,N,,,10JAN2007,,,,,Phosphate Concentration (mg/dL),PHOSCONC,36,URINALYSIS,106,106.0,,,,,,,,,,,,
BBC,BBC-10-041,041,10,44,ARM B,2,ARM B,2,Y,N,N,N,,,10JAN2007,,,,,25-Hydroxyvitamin D3 (ug/L),VITDIT3,38,ENDOCRINE,5.8,5.8,,,,,,,,,,,,
BBC,BBC-10-041,041,10,41,ARM B,2,ARM B,2,Y,N,N,N,,,10JAN2007,,,,,"1, 25-Dihydroxyvitamin D (pmol/L)",VITDAT,40,ENDOCRINE,3.36,3.36,,,Normal,,,,,,,,,
BBC,BBC-10-042,042,10,31,ARM C,3,ARM C,3,Y,Y,Y,Y,10JAN2007,13APR2007,18DEC2006,-23,,,,Total Calcium (mg/dL),CA,1,CHEMISTRY,9,9.0,9.8,9.8,Normal,Normal,,,,,,,,
BBC,BBC-10-042,042,10,32,ARM C,3,ARM C,3,Y,Y,Y,Y,10JAN2007,13APR2007,10JAN2007,1,,Day 1 Baseline,0,Total Calcium (mg/dL),CA,1,CHEMISTRY,9.8,9.8,9.8,9.8,Normal,Normal,,,,,,,Y,Y
BBC,BBC-10-042,042,10,33,ARM C,3,ARM C,3,Y,Y,Y,Y,10JAN2007,13APR2007,24JAN2007,15,,Week 2,2,Total Calcium (mg/dL),CA,1,CHEMISTRY,9.4,9.4,9.8,9.8,Normal,Normal,8-22 DAYS,15,0,8,22,DAYS,,Y
BBC,BBC-10-042,042,10,34,ARM C,3,ARM C,3,Y,Y,Y,Y,10JAN2007,13APR2007,23FEB2007,45,,Week 6,6,Total Calcium (mg/dL),CA,1,CHEMISTRY,9.1,9.1,9.8,9.8,Normal,Normal,37-50 DAYS,43,2,37,50,DAYS,,Y
BBC,BBC-10-042,042,10,35,ARM C,3,ARM C,3,Y,Y,Y,Y,10JAN2007,13APR2007,13APR2007,94,,Week 12,12,Total Calcium (mg/dL),CA,1,CHEMISTRY,9.3,9.3,9.8,9.8,Normal,Normal,72-99 DAYS,85,9,72,99,DAYS,,Y
BBC,BBC-10-042,042,10,56,ARM C,3,ARM C,3,Y,Y,Y,Y,10JAN2007,13APR2007,18DEC2006,-23,,,,Potassium (mmol/L),K,2,CHEMISTRY,3.5,3.5,3.4,3.4,Low,Low,,,,,,,,
BBC,BBC-10-042,042,10,57,ARM C,3,ARM C,3,Y,Y,Y,Y,10JAN2007,13APR2007,10JAN2007,1,,Day 1 Baseline,0,Potassium (mmol/L),K,2,CHEMISTRY,3.4,3.4,3.4,3.4,Low,Low,,,,,,,Y,Y
BBC,BBC-10-042,042,10,58,ARM C,3,ARM C,3,Y,Y,Y,Y,10JAN2007,13APR2007,24JAN2007,15,,Week 2,2,Potassium (mmol/L),K,2,CHEMISTRY,4,4.0,3.4,3.4,Normal,Low,8-22 DAYS,15,0,8,22,DAYS,,Y
BBC,BBC-10-042,042,10,59,ARM C,3,ARM C,3,Y,Y,Y,Y,10JAN2007,13APR2007,23FEB2007,45,,Week 6,6,Potassium (mmol/L),K,2,CHEMISTRY,4.4,4.4,3.4,3.4,Normal,Low,37-50 DAYS,43,2,37,50,DAYS,,Y
BBC,BBC-10-042,042,10,60,ARM C,3,ARM C,3,Y,Y,Y,Y,10JAN2007,13APR2007,13APR2007,94,,Week 12,12,Potassium (mmol/L),K,2,CHEMISTRY,3.9,3.9,3.4,3.4,Normal,Low,72-99 DAYS,85,9,72,99,DAYS,,Y
BBC,BBC-10-042,042,10,41,ARM C,3,ARM C,3,Y,Y,Y,Y,10JAN2007,13APR2007,18DEC2006,-23,,,,Chloride (mmol/L),CL,3,CHEMISTRY,105,105,101,101,Normal,Normal,,,,,,,,
BBC,BBC-10-042,042,10,42,ARM C,3,ARM C,3,Y,Y,Y,Y,10JAN2007,13APR2007,10JAN2007,1,,Day 1 Baseline,0,Chloride (mmol/L),CL,3,CHEMISTRY,101,101,101,101,Normal,Normal,,,,,,,Y,Y
BBC,BBC-10-042,042,10,43,ARM C,3,ARM C,3,Y,Y,Y,Y,10JAN2007,13APR2007,24JAN2007,15,,Week 2,2,Chloride (mmol/L),CL,3,CHEMISTRY,103,103,101,101,Normal,Normal,8-22 DAYS,15,0,8,22,DAYS,,Y
BBC,BBC-10-042,042,10,44,ARM C,3,ARM C,3,Y,Y,Y,Y,10JAN2007,13APR2007,23FEB2007,45,,Week 6,6,Chloride (mmol/L),CL,3,CHEMISTRY,108,108,101,101,Normal,Normal,37-50 DAYS,43,2,37,50,DAYS,,Y
BBC,BBC-10-042,042,10,45,ARM C,3,ARM C,3,Y,Y,Y,Y,10JAN2007,13APR2007,13APR2007,94,,Week 12,12,Chloride (mmol/L),CL,3,CHEMISTRY,105,105,101,101,Normal,Normal,72-99 DAYS,85,9,72,99,DAYS,,Y
BBC,BBC-10-042,042,10,21,ARM C,3,ARM C,3,Y,Y,Y,Y,10JAN2007,13APR2007,18DEC2006,-23,,,,Total Bilirubin (mg/dL),BILI,4,CHEMISTRY,0.2,0.2,0.3,0.3,Normal,Normal,,,,,,,,
BBC,BBC-10-042,042,10,22,ARM C,3,ARM C,3,Y,Y,Y,Y,10JAN2007,13APR2007,10JAN2007,1,,Day 1 Baseline,0,Total Bilirubin (mg/dL),BILI,4,CHEMISTRY,0.3,0.3,0.3,0.3,Normal,Normal,,,,,,,Y,Y
BBC,BBC-10-042,042,10,23,ARM C,3,ARM C,3,Y,Y,Y,Y,10JAN2007,13APR2007,24JAN2007,15,,Week 2,2,Total Bilirubin (mg/dL),BILI,4,CHEMISTRY,0.2,0.2,0.3,0.3,Normal,Normal,8-22 DAYS,15,0,8,22,DAYS,,Y
BBC,BBC-10-042,042,10,24,ARM C,3,ARM C,3,Y,Y,Y,Y,10JAN2007,13APR2007,23FEB2007,45,,Week 6,6,Total Bilirubin (mg/dL),BILI,4,CHEMISTRY,0.2,0.2,0.3,0.3,Normal,Normal,37-50 DAYS,43,2,37,50,DAYS,,Y
BBC,BBC-10-042,042,10,25,ARM C,3,ARM C,3,Y,Y,Y,Y,10JAN2007,13APR2007,13APR2007,94,,Week 12,12,Total Bilirubin (mg/dL),BILI,4,CHEMISTRY,0.3,0.3,0.3,0.3,Normal,Normal,72-99 DAYS,85,9,72,99,DAYS,,Y
BBC,BBC-10-042,042,10,76,ARM C,3,ARM C,3,Y,Y,Y,Y,10JAN2007,13APR2007,18DEC2006,-23,,,,Sodium (mmol/L),SODIUM,5,CHEMISTRY,138,138,137,137,Normal,Normal,,,,,,,,
BBC,BBC-10-042,042,10,77,ARM C,3,ARM C,3,Y,Y,Y,Y,10JAN2007,13APR2007,10JAN2007,1,,Day 1 Baseline,0,Sodium (mmol/L),SODIUM,5,CHEMISTRY,137,137,137,137,Normal,Normal,,,,,,,Y,Y
BBC,BBC-10-042,042,10,78,ARM C,3,ARM C,3,Y,Y,Y,Y,10JAN2007,13APR2007,24JAN2007,15,,Week 2,2,Sodium (mmol/L),SODIUM,5,CHEMISTRY,138,138,137,137,Normal,Normal,8-22 DAYS,15,0,8,22,DAYS,,Y
BBC,BBC-10-042,042,10,79,ARM C,3,ARM C,3,Y,Y,Y,Y,10JAN2007,13APR2007,23FEB2007,45,,Week 6,6,Sodium (mmol/L),SODIUM,5,CHEMISTRY,141,141,137,137,Normal,Normal,37-50 DAYS,43,2,37,50,DAYS,,Y
BBC,BBC-10-042,042,10,80,ARM C,3,ARM C,3,Y,Y,Y,Y,10JAN2007,13APR2007,13APR2007,94,,Week 12,12,Sodium (mmol/L),SODIUM,5,CHEMISTRY,138,138,137,137,Normal,Normal,72-99 DAYS,85,9,72,99,DAYS,,Y
BBC,BBC-10-042,042,10,16,ARM C,3,ARM C,3,Y,Y,Y,Y,10JAN2007,13APR2007,18DEC2006,-23,,,,"Aspartate Aminotransferase, AST (U/L)",AST,6,CHEMISTRY,21,21,19,19,Normal,Normal,,,,,,,,
BBC,BBC-10-042,042,10,17,ARM C,3,ARM C,3,Y,Y,Y,Y,10JAN2007,13APR2007,10JAN2007,1,,Day 1 Baseline,0,"Aspartate Aminotransferase, AST (U/L)",AST,6,CHEMISTRY,19,19,19,19,Normal,Normal,,,,,,,Y,Y
BBC,BBC-10-042,042,10,18,ARM C,3,ARM C,3,Y,Y,Y,Y,10JAN2007,13APR2007,24JAN2007,15,,Week 2,2,"Aspartate Aminotransferase, AST (U/L)",AST,6,CHEMISTRY,21,21,19,19,Normal,Normal,8-22 DAYS,15,0,8,22,DAYS,,Y
BBC,BBC-10-042,042,10,19,ARM C,3,ARM C,3,Y,Y,Y,Y,10JAN2007,13APR2007,23FEB2007,45,,Week 6,6,"Aspartate Aminotransferase, AST (U/L)",AST,6,CHEMISTRY,20,20,19,19,Normal,Normal,37-50 DAYS,43,2,37,50,DAYS,,Y
BBC,BBC-10-042,042,10,20,ARM C,3,ARM C,3,Y,Y,Y,Y,10JAN2007,13APR2007,13APR2007,94,,Week 12,12,"Aspartate Aminotransferase, AST (U/L)",AST,6,CHEMISTRY,23,23,19,19,Normal,Normal,72-99 DAYS,85,9,72,99,DAYS,,Y
BBC,BBC-10-042,042,10,11,ARM C,3,ARM C,3,Y,Y,Y,Y,10JAN2007,13APR2007,18DEC2006,-23,,,,"Alanine Aminotransferase, ALT (U/L)",ALT,7,CHEMISTRY,21,21,13,13,Normal,Normal,,,,,,,,
BBC,BBC-10-042,042,10,12,ARM C,3,ARM C,3,Y,Y,Y,Y,10JAN2007,13APR2007,10JAN2007,1,,Day 1 Baseline,0,"Alanine Aminotransferase, ALT (U/L)",ALT,7,CHEMISTRY,13,13,13,13,Normal,Normal,,,,,,,Y,Y
BBC,BBC-10-042,042,10,13,ARM C,3,ARM C,3,Y,Y,Y,Y,10JAN2007,13APR2007,24JAN2007,15,,Week 2,2,"Alanine Aminotransferase, ALT (U/L)",ALT,7,CHEMISTRY,20,20,13,13,Normal,Normal,8-22 DAYS,15,0,8,22,DAYS,,Y
BBC,BBC-10-042,042,10,14,ARM C,3,ARM C,3,Y,Y,Y,Y,10JAN2007,13APR2007,23FEB2007,45,,Week 6,6,"Alanine Aminotransferase, ALT (U/L)",ALT,7,CHEMISTRY,23,23,13,13,Normal,Normal,37-50 DAYS,43,2,37,50,DAYS,,Y
BBC,BBC-10-042,042,10,15,ARM C,3,ARM C,3,Y,Y,Y,Y,10JAN2007,13APR2007,13APR2007,94,,Week 12,12,"Alanine Aminotransferase, ALT (U/L)",ALT,7,CHEMISTRY,20,20,13,13,Normal,Normal,72-99 DAYS,85,9,72,99,DAYS,,Y
BBC,BBC-10-042,042,10,26,ARM C,3,ARM C,3,Y,Y,Y,Y,10JAN2007,13APR2007,18DEC2006,-23,,,,"Blood Urea Nitrogen, BUN (mg/dL)",BUN,8,CHEMISTRY,10,10,12,12,Normal,Normal,,,,,,,,
BBC,BBC-10-042,042,10,27,ARM C,3,ARM C,3,Y,Y,Y,Y,10JAN2007,13APR2007,10JAN2007,1,,Day 1 Baseline,0,"Blood Urea Nitrogen, BUN (mg/dL)",BUN,8,CHEMISTRY,12,12,12,12,Normal,Normal,,,,,,,Y,Y
BBC,BBC-10-042,042,10,28,ARM C,3,ARM C,3,Y,Y,Y,Y,10JAN2007,13APR2007,24JAN2007,15,,Week 2,2,"Blood Urea Nitrogen, BUN (mg/dL)",BUN,8,CHEMISTRY,11,11,12,12,Normal,Normal,8-22 DAYS,15,0,8,22,DAYS,,Y
BBC,BBC-10-042,042,10,29,ARM C,3,ARM C,3,Y,Y,Y,Y,10JAN2007,13APR2007,23FEB2007,45,,Week 6,6,"Blood Urea Nitrogen, BUN (mg/dL)",BUN,8,CHEMISTRY,13,13,12,12,Normal,Normal,37-50 DAYS,43,2,37,50,DAYS,,Y
BBC,BBC-10-042,042,10,30,ARM C,3,ARM C,3,Y,Y,Y,Y,10JAN2007,13APR2007,13APR2007,94,,Week 12,12,"Blood Urea Nitrogen, BUN (mg/dL)",BUN,8,CHEMISTRY,12,12,12,12,Normal,Normal,72-99 DAYS,85,9,72,99,DAYS,,Y
BBC,BBC-10-042,042,10,51,ARM C,3,ARM C,3,Y,Y,Y,Y,10JAN2007,13APR2007,18DEC2006,-23,,,,Glucose (mg/dL),GLUC,9,CHEMISTRY,107,107,101,101,High,High,,,,,,,,
BBC,BBC-10-042,042,10,52,ARM C,3,ARM C,3,Y,Y,Y,Y,10JAN2007,13APR2007,10JAN2007,1,,Day 1 Baseline,0,Glucose (mg/dL),GLUC,9,CHEMISTRY,101,101,101,101,High,High,,,,,,,Y,Y
BBC,BBC-10-042,042,10,53,ARM C,3,ARM C,3,Y,Y,Y,Y,10JAN2007,13APR2007,24JAN2007,15,,Week 2,2,Glucose (mg/dL),GLUC,9,CHEMISTRY,88,88,101,101,Normal,High,8-22 DAYS,15,0,8,22,DAYS,,Y
BBC,BBC-10-042,042,10,54,ARM C,3,ARM C,3,Y,Y,Y,Y,10JAN2007,13APR2007,23FEB2007,45,,Week 6,6,Glucose (mg/dL),GLUC,9,CHEMISTRY,102,102,101,101,High,High,37-50 DAYS,43,2,37,50,DAYS,,Y
BBC,BBC-10-042,042,10,55,ARM C,3,ARM C,3,Y,Y,Y,Y,10JAN2007,13APR2007,13APR2007,94,,Week 12,12,Glucose (mg/dL),GLUC,9,CHEMISTRY,105,105,101,101,High,High,72-99 DAYS,85,9,72,99,DAYS,,Y
BBC,BBC-10-042,042,10,6,ARM C,3,ARM C,3,Y,Y,Y,Y,10JAN2007,13APR2007,18DEC2006,-23,,,,Alkaline Phosphatase (U/L),ALP,10,CHEMISTRY,75,75,75,75,Normal,Normal,,,,,,,,
BBC,BBC-10-042,042,10,7,ARM C,3,ARM C,3,Y,Y,Y,Y,10JAN2007,13APR2007,10JAN2007,1,,Day 1 Baseline,0,Alkaline Phosphatase (U/L),ALP,10,CHEMISTRY,75,75,75,75,Normal,Normal,,,,,,,Y,Y
BBC,BBC-10-042,042,10,8,ARM C,3,ARM C,3,Y,Y,Y,Y,10JAN2007,13APR2007,24JAN2007,15,,Week 2,2,Alkaline Phosphatase (U/L),ALP,10,CHEMISTRY,84,84,75,75,Normal,Normal,8-22 DAYS,15,0,8,22,DAYS,,Y
BBC,BBC-10-042,042,10,9,ARM C,3,ARM C,3,Y,Y,Y,Y,10JAN2007,13APR2007,23FEB2007,45,,Week 6,6,Alkaline Phosphatase (U/L),ALP,10,CHEMISTRY,81,81,75,75,Normal,Normal,37-50 DAYS,43,2,37,50,DAYS,,Y
BBC,BBC-10-042,042,10,10,ARM C,3,ARM C,3,Y,Y,Y,Y,10JAN2007,13APR2007,13APR2007,94,,Week 12,12,Alkaline Phosphatase (U/L),ALP,10,CHEMISTRY,105,105,75,75,High,Normal,72-99 DAYS,85,9,72,99,DAYS,,Y
BBC,BBC-10-042,042,10,86,ARM C,3,ARM C,3,Y,Y,Y,Y,10JAN2007,13APR2007,18DEC2006,-23,,,,Uric Acid (mg/dL),URATE,11,CHEMISTRY,4.8,4.8,4.7,4.7,Normal,Normal,,,,,,,,
BBC,BBC-10-042,042,10,87,ARM C,3,ARM C,3,Y,Y,Y,Y,10JAN2007,13APR2007,10JAN2007,1,,Day 1 Baseline,0,Uric Acid (mg/dL),URATE,11,CHEMISTRY,4.7,4.7,4.7,4.7,Normal,Normal,,,,,,,Y,Y
BBC,BBC-10-042,042,10,88,ARM C,3,ARM C,3,Y,Y,Y,Y,10JAN2007,13APR2007,24JAN2007,15,,Week 2,2,Uric Acid (mg/dL),URATE,11,CHEMISTRY,5.1,5.1,4.7,4.7,Normal,Normal,8-22 DAYS,15,0,8,22,DAYS,,Y
BBC,BBC-10-042,042,10,89,ARM C,3,ARM C,3,Y,Y,Y,Y,10JAN2007,13APR2007,23FEB2007,45,,Week 6,6,Uric Acid (mg/dL),URATE,11,CHEMISTRY,5.1,5.1,4.7,4.7,Normal,Normal,37-50 DAYS,43,2,37,50,DAYS,,Y
BBC,BBC-10-042,042,10,90,ARM C,3,ARM C,3,Y,Y,Y,Y,10JAN2007,13APR2007,13APR2007,94,,Week 12,12,Uric Acid (mg/dL),URATE,11,CHEMISTRY,5,5.0,4.7,4.7,Normal,Normal,72-99 DAYS,85,9,72,99,DAYS,,Y
BBC,BBC-10-042,042,10,66,ARM C,3,ARM C,3,Y,Y,Y,Y,10JAN2007,13APR2007,18DEC2006,-23,,,,Inorganic Phosphorus (mg/dL),PHOS,12,CHEMISTRY,2.2,2.2,3.2,3.2,Low,Normal,,,,,,,,
BBC,BBC-10-042,042,10,67,ARM C,3,ARM C,3,Y,Y,Y,Y,10JAN2007,13APR2007,10JAN2007,1,,Day 1 Baseline,0,Inorganic Phosphorus (mg/dL),PHOS,12,CHEMISTRY,3.2,3.2,3.2,3.2,Normal,Normal,,,,,,,Y,Y
BBC,BBC-10-042,042,10,68,ARM C,3,ARM C,3,Y,Y,Y,Y,10JAN2007,13APR2007,24JAN2007,15,,Week 2,2,Inorganic Phosphorus (mg/dL),PHOS,12,CHEMISTRY,3.3,3.3,3.2,3.2,Normal,Normal,8-22 DAYS,15,0,8,22,DAYS,,Y
BBC,BBC-10-042,042,10,69,ARM C,3,ARM C,3,Y,Y,Y,Y,10JAN2007,13APR2007,23FEB2007,45,,Week 6,6,Inorganic Phosphorus (mg/dL),PHOS,12,CHEMISTRY,2.1,2.1,3.2,3.2,Low,Normal,37-50 DAYS,43,2,37,50,DAYS,,Y
BBC,BBC-10-042,042,10,70,ARM C,3,ARM C,3,Y,Y,Y,Y,10JAN2007,13APR2007,13APR2007,94,,Week 12,12,Inorganic Phosphorus (mg/dL),PHOS,12,CHEMISTRY,3.8,3.8,3.2,3.2,Normal,Normal,72-99 DAYS,85,9,72,99,DAYS,,Y
BBC,BBC-10-042,042,10,1,ARM C,3,ARM C,3,Y,Y,Y,Y,10JAN2007,13APR2007,18DEC2006,-23,,,,Albumin (g/dL),ALB,13,CHEMISTRY,4.1,4.1,4.2,4.2,Normal,Normal,,,,,,,,
BBC,BBC-10-042,042,10,2,ARM C,3,ARM C,3,Y,Y,Y,Y,10JAN2007,13APR2007,10JAN2007,1,,Day 1 Baseline,0,Albumin (g/dL),ALB,13,CHEMISTRY,4.2,4.2,4.2,4.2,Normal,Normal,,,,,,,Y,Y
BBC,BBC-10-042,042,10,3,ARM C,3,ARM C,3,Y,Y,Y,Y,10JAN2007,13APR2007,24JAN2007,15,,Week 2,2,Albumin (g/dL),ALB,13,CHEMISTRY,4.1,4.1,4.2,4.2,Normal,Normal,8-22 DAYS,15,0,8,22,DAYS,,Y
BBC,BBC-10-042,042,10,4,ARM C,3,ARM C,3,Y,Y,Y,Y,10JAN2007,13APR2007,23FEB2007,45,,Week 6,6,Albumin (g/dL),ALB,13,CHEMISTRY,4.1,4.1,4.2,4.2,Normal,Normal,37-50 DAYS,43,2,37,50,DAYS,,Y
BBC,BBC-10-042,042,10,5,ARM C,3,ARM C,3,Y,Y,Y,Y,10JAN2007,13APR2007,13APR2007,94,,Week 12,12,Albumin (g/dL),ALB,13,CHEMISTRY,4.3,4.3,4.2,4.2,Normal,Normal,72-99 DAYS,85,9,72,99,DAYS,,Y
BBC,BBC-10-042,042,10,71,ARM C,3,ARM C,3,Y,Y,Y,Y,10JAN2007,13APR2007,18DEC2006,-23,,,,Total Protein (g/dL),PROT,14,CHEMISTRY,6.9,6.9,7.2,7.2,Normal,Normal,,,,,,,,
BBC,BBC-10-042,042,10,72,ARM C,3,ARM C,3,Y,Y,Y,Y,10JAN2007,13APR2007,10JAN2007,1,,Day 1 Baseline,0,Total Protein (g/dL),PROT,14,CHEMISTRY,7.2,7.2,7.2,7.2,Normal,Normal,,,,,,,Y,Y
BBC,BBC-10-042,042,10,73,ARM C,3,ARM C,3,Y,Y,Y,Y,10JAN2007,13APR2007,24JAN2007,15,,Week 2,2,Total Protein (g/dL),PROT,14,CHEMISTRY,7.2,7.2,7.2,7.2,Normal,Normal,8-22 DAYS,15,0,8,22,DAYS,,Y
BBC,BBC-10-042,042,10,74,ARM C,3,ARM C,3,Y,Y,Y,Y,10JAN2007,13APR2007,23FEB2007,45,,Week 6,6,Total Protein (g/dL),PROT,14,CHEMISTRY,7.1,7.1,7.2,7.2,Normal,Normal,37-50 DAYS,43,2,37,50,DAYS,,Y
BBC,BBC-10-042,042,10,75,ARM C,3,ARM C,3,Y,Y,Y,Y,10JAN2007,13APR2007,13APR2007,94,,Week 12,12,Total Protein (g/dL),PROT,14,CHEMISTRY,7.3,7.3,7.2,7.2,Normal,Normal,72-99 DAYS,85,9,72,99,DAYS,,Y
BBC,BBC-10-042,042,10,61,ARM C,3,ARM C,3,Y,Y,Y,Y,10JAN2007,13APR2007,18DEC2006,-23,,,,Lipase (U/L),LIPASE,15,CHEMISTRY,22,22,20,20,Normal,Normal,,,,,,,,
BBC,BBC-10-042,042,10,62,ARM C,3,ARM C,3,Y,Y,Y,Y,10JAN2007,13APR2007,10JAN2007,1,,Day 1 Baseline,0,Lipase (U/L),LIPASE,15,CHEMISTRY,20,20,20,20,Normal,Normal,,,,,,,Y,Y
BBC,BBC-10-042,042,10,63,ARM C,3,ARM C,3,Y,Y,Y,Y,10JAN2007,13APR2007,24JAN2007,15,,Week 2,2,Lipase (U/L),LIPASE,15,CHEMISTRY,18,18,20,20,Normal,Normal,8-22 DAYS,15,0,8,22,DAYS,,Y
BBC,BBC-10-042,042,10,64,ARM C,3,ARM C,3,Y,Y,Y,Y,10JAN2007,13APR2007,23FEB2007,45,,Week 6,6,Lipase (U/L),LIPASE,15,CHEMISTRY,18,18,20,20,Normal,Normal,37-50 DAYS,43,2,37,50,DAYS,,Y
BBC,BBC-10-042,042,10,65,ARM C,3,ARM C,3,Y,Y,Y,Y,10JAN2007,13APR2007,13APR2007,94,,Week 12,12,Lipase (U/L),LIPASE,15,CHEMISTRY,15,15,20,20,Normal,Normal,72-99 DAYS,85,9,72,99,DAYS,,Y
BBC,BBC-10-042,042,10,36,ARM C,3,ARM C,3,Y,Y,Y,Y,10JAN2007,13APR2007,18DEC2006,-23,,,,Total Cholesterol (mg/dL),CHOL,16,CHEMISTRY,203,203,210,210,Normal,Normal,,,,,,,,
BBC,BBC-10-042,042,10,37,ARM C,3,ARM C,3,Y,Y,Y,Y,10JAN2007,13APR2007,10JAN2007,1,,Day 1 Baseline,0,Total Cholesterol (mg/dL),CHOL,16,CHEMISTRY,210,210,210,210,Normal,Normal,,,,,,,Y,Y
BBC,BBC-10-042,042,10,38,ARM C,3,ARM C,3,Y,Y,Y,Y,10JAN2007,13APR2007,24JAN2007,15,,Week 2,2,Total Cholesterol (mg/dL),CHOL,16,CHEMISTRY,183,183,210,210,Normal,Normal,8-22 DAYS,15,0,8,22,DAYS,,Y
BBC,BBC-10-042,042,10,39,ARM C,3,ARM C,3,Y,Y,Y,Y,10JAN2007,13APR2007,23FEB2007,45,,Week 6,6,Total Cholesterol (mg/dL),CHOL,16,CHEMISTRY,194,194,210,210,Normal,Normal,37-50 DAYS,43,2,37,50,DAYS,,Y
BBC,BBC-10-042,042,10,40,ARM C,3,ARM C,3,Y,Y,Y,Y,10JAN2007,13APR2007,13APR2007,94,,Week 12,12,Total Cholesterol (mg/dL),CHOL,16,CHEMISTRY,205,205,210,210,Normal,Normal,72-99 DAYS,85,9,72,99,DAYS,,Y
BBC,BBC-10-042,042,10,81,ARM C,3,ARM C,3,Y,Y,Y,Y,10JAN2007,13APR2007,18DEC2006,-23,,,,Triglycerides (mg/dL),TRIG,17,CHEMISTRY,139,139,188,188,Normal,Normal,,,,,,,,
BBC,BBC-10-042,042,10,82,ARM C,3,ARM C,3,Y,Y,Y,Y,10JAN2007,13APR2007,10JAN2007,1,,Day 1 Baseline,0,Triglycerides (mg/dL),TRIG,17,CHEMISTRY,188,188,188,188,Normal,Normal,,,,,,,Y,Y
BBC,BBC-10-042,042,10,83,ARM C,3,ARM C,3,Y,Y,Y,Y,10JAN2007,13APR2007,24JAN2007,15,,Week 2,2,Triglycerides (mg/dL),TRIG,17,CHEMISTRY,229,229,188,188,High,Normal,8-22 DAYS,15,0,8,22,DAYS,,Y
BBC,BBC-10-042,042,10,84,ARM C,3,ARM C,3,Y,Y,Y,Y,10JAN2007,13APR2007,23FEB2007,45,,Week 6,6,Triglycerides (mg/dL),TRIG,17,CHEMISTRY,140,140,188,188,Normal,Normal,37-50 DAYS,43,2,37,50,DAYS,,Y
BBC,BBC-10-042,042,10,85,ARM C,3,ARM C,3,Y,Y,Y,Y,10JAN2007,13APR2007,13APR2007,94,,Week 12,12,Triglycerides (mg/dL),TRIG,17,CHEMISTRY,242,242,188,188,High,Normal,72-99 DAYS,85,9,72,99,DAYS,,Y
BBC,BBC-10-042,042,10,46,ARM C,3,ARM C,3,Y,Y,Y,Y,10JAN2007,13APR2007,18DEC2006,-23,,,,Creatinine (mg/dL),CREAT,18,CHEMISTRY,0.8,0.8,1,1.0,Normal,Normal,,,,,,,,
BBC,BBC-10-042,042,10,47,ARM C,3,ARM C,3,Y,Y,Y,Y,10JAN2007,13APR2007,10JAN2007,1,,Day 1 Baseline,0,Creatinine (mg/dL),CREAT,18,CHEMISTRY,1,1.0,1,1.0,Normal,Normal,,,,,,,Y,Y
BBC,BBC-10-042,042,10,48,ARM C,3,ARM C,3,Y,Y,Y,Y,10JAN2007,13APR2007,24JAN2007,15,,Week 2,2,Creatinine (mg/dL),CREAT,18,CHEMISTRY,0.8,0.8,1,1.0,Normal,Normal,8-22 DAYS,15,0,8,22,DAYS,,Y
BBC,BBC-10-042,042,10,49,ARM C,3,ARM C,3,Y,Y,Y,Y,10JAN2007,13APR2007,23FEB2007,45,,Week 6,6,Creatinine (mg/dL),CREAT,18,CHEMISTRY,0.8,0.8,1,1.0,Normal,Normal,37-50 DAYS,43,2,37,50,DAYS,,Y
BBC,BBC-10-042,042,10,50,ARM C,3,ARM C,3,Y,Y,Y,Y,10JAN2007,13APR2007,13APR2007,94,,Week 12,12,Creatinine (mg/dL),CREAT,18,CHEMISTRY,0.8,0.8,1,1.0,Normal,Normal,72-99 DAYS,85,9,72,99,DAYS,,Y
BBC,BBC-10-042,042,10,143,ARM C,3,ARM C,3,Y,Y,Y,Y,10JAN2007,13APR2007,18DEC2006,-23,,,,Lymphocytes (10^9/L),LYM,19,HEMATOLOGY,2.05,2.05,2.17,2.17,Normal,Normal,,,,,,,,
BBC,BBC-10-042,042,10,144,ARM C,3,ARM C,3,Y,Y,Y,Y,10JAN2007,13APR2007,10JAN2007,1,,Day 1 Baseline,0,Lymphocytes (10^9/L),LYM,19,HEMATOLOGY,2.17,2.17,2.17,2.17,Normal,Normal,,,,,,,Y,Y
BBC,BBC-10-042,042,10,145,ARM C,3,ARM C,3,Y,Y,Y,Y,10JAN2007,13APR2007,24JAN2007,15,,Week 2,2,Lymphocytes (10^9/L),LYM,19,HEMATOLOGY,2.28,2.28,2.17,2.17,Normal,Normal,8-22 DAYS,15,0,8,22,DAYS,,Y
BBC,BBC-10-042,042,10,146,ARM C,3,ARM C,3,Y,Y,Y,Y,10JAN2007,13APR2007,23FEB2007,45,,Week 6,6,Lymphocytes (10^9/L),LYM,19,HEMATOLOGY,1.69,1.69,2.17,2.17,Normal,Normal,37-50 DAYS,43,2,37,50,DAYS,,Y
BBC,BBC-10-042,042,10,147,ARM C,3,ARM C,3,Y,Y,Y,Y,10JAN2007,13APR2007,13APR2007,94,,Week 12,12,Lymphocytes (10^9/L),LYM,19,HEMATOLOGY,1.92,1.92,2.17,2.17,Normal,Normal,72-99 DAYS,85,9,72,99,DAYS,,Y
BBC,BBC-10-042,042,10,168,ARM C,3,ARM C,3,Y,Y,Y,Y,10JAN2007,13APR2007,18DEC2006,-23,,,,Monocytes (10^9/L),MONO,20,HEMATOLOGY,0.74,0.74,0.9,0.90,Normal,Normal,,,,,,,,
BBC,BBC-10-042,042,10,169,ARM C,3,ARM C,3,Y,Y,Y,Y,10JAN2007,13APR2007,10JAN2007,1,,Day 1 Baseline,0,Monocytes (10^9/L),MONO,20,HEMATOLOGY,0.9,0.90,0.9,0.90,Normal,Normal,,,,,,,Y,Y
BBC,BBC-10-042,042,10,170,ARM C,3,ARM C,3,Y,Y,Y,Y,10JAN2007,13APR2007,24JAN2007,15,,Week 2,2,Monocytes (10^9/L),MONO,20,HEMATOLOGY,0.99,0.99,0.9,0.90,High,Normal,8-22 DAYS,15,0,8,22,DAYS,,Y
BBC,BBC-10-042,042,10,171,ARM C,3,ARM C,3,Y,Y,Y,Y,10JAN2007,13APR2007,23FEB2007,45,,Week 6,6,Monocytes (10^9/L),MONO,20,HEMATOLOGY,0.72,0.72,0.9,0.90,Normal,Normal,37-50 DAYS,43,2,37,50,DAYS,,Y
BBC,BBC-10-042,042,10,172,ARM C,3,ARM C,3,Y,Y,Y,Y,10JAN2007,13APR2007,13APR2007,94,,Week 12,12,Monocytes (10^9/L),MONO,20,HEMATOLOGY,1,1.00,0.9,0.90,High,Normal,72-99 DAYS,85,9,72,99,DAYS,,Y
BBC,BBC-10-042,042,10,198,ARM C,3,ARM C,3,Y,Y,Y,Y,10JAN2007,13APR2007,18DEC2006,-23,,,,RBC Distribution Width (%),RDW,21,HEMATOLOGY,12.6,12.6,12.4,12.4,Normal,Normal,,,,,,,,
BBC,BBC-10-042,042,10,199,ARM C,3,ARM C,3,Y,Y,Y,Y,10JAN2007,13APR2007,10JAN2007,1,,Day 1 Baseline,0,RBC Distribution Width (%),RDW,21,HEMATOLOGY,12.4,12.4,12.4,12.4,Normal,Normal,,,,,,,Y,Y
BBC,BBC-10-042,042,10,200,ARM C,3,ARM C,3,Y,Y,Y,Y,10JAN2007,13APR2007,24JAN2007,15,,Week 2,2,RBC Distribution Width (%),RDW,21,HEMATOLOGY,12.1,12.1,12.4,12.4,Normal,Normal,8-22 DAYS,15,0,8,22,DAYS,,Y
BBC,BBC-10-042,042,10,201,ARM C,3,ARM C,3,Y,Y,Y,Y,10JAN2007,13APR2007,23FEB2007,45,,Week 6,6,RBC Distribution Width (%),RDW,21,HEMATOLOGY,12.6,12.6,12.4,12.4,Normal,Normal,37-50 DAYS,43,2,37,50,DAYS,,Y
BBC,BBC-10-042,042,10,202,ARM C,3,ARM C,3,Y,Y,Y,Y,10JAN2007,13APR2007,13APR2007,94,,Week 12,12,RBC Distribution Width (%),RDW,21,HEMATOLOGY,12.4,12.4,12.4,12.4,Normal,Normal,72-99 DAYS,85,9,72,99,DAYS,,Y
BBC,BBC-10-042,042,10,188,ARM C,3,ARM C,3,Y,Y,Y,Y,10JAN2007,13APR2007,18DEC2006,-23,,,,Platelet Count (10^9/L),PLAT,22,HEMATOLOGY,366,366,315,315,Normal,Normal,,,,,,,,
BBC,BBC-10-042,042,10,189,ARM C,3,ARM C,3,Y,Y,Y,Y,10JAN2007,13APR2007,10JAN2007,1,,Day 1 Baseline,0,Platelet Count (10^9/L),PLAT,22,HEMATOLOGY,315,315,315,315,Normal,Normal,,,,,,,Y,Y
BBC,BBC-10-042,042,10,190,ARM C,3,ARM C,3,Y,Y,Y,Y,10JAN2007,13APR2007,24JAN2007,15,,Week 2,2,Platelet Count (10^9/L),PLAT,22,HEMATOLOGY,341,341,315,315,Normal,Normal,8-22 DAYS,15,0,8,22,DAYS,,Y
BBC,BBC-10-042,042,10,191,ARM C,3,ARM C,3,Y,Y,Y,Y,10JAN2007,13APR2007,23FEB2007,45,,Week 6,6,Platelet Count (10^9/L),PLAT,22,HEMATOLOGY,376,376,315,315,Normal,Normal,37-50 DAYS,43,2,37,50,DAYS,,Y
BBC,BBC-10-042,042,10,192,ARM C,3,ARM C,3,Y,Y,Y,Y,10JAN2007,13APR2007,13APR2007,94,,Week 12,12,Platelet Count (10^9/L),PLAT,22,HEMATOLOGY,306,306,315,315,Normal,Normal,72-99 DAYS,85,9,72,99,DAYS,,Y
BBC,BBC-10-042,042,10,178,ARM C,3,ARM C,3,Y,Y,Y,Y,10JAN2007,13APR2007,18DEC2006,-23,,,,Neutrophils (10^9/L),NEUT,23,HEMATOLOGY,6.02,6.02,8.88,8.88,Normal,High,,,,,,,,
BBC,BBC-10-042,042,10,179,ARM C,3,ARM C,3,Y,Y,Y,Y,10JAN2007,13APR2007,10JAN2007,1,,Day 1 Baseline,0,Neutrophils (10^9/L),NEUT,23,HEMATOLOGY,8.88,8.88,8.88,8.88,High,High,,,,,,,Y,Y
BBC,BBC-10-042,042,10,180,ARM C,3,ARM C,3,Y,Y,Y,Y,10JAN2007,13APR2007,24JAN2007,15,,Week 2,2,Neutrophils (10^9/L),NEUT,23,HEMATOLOGY,6.05,6.05,8.88,8.88,Normal,High,8-22 DAYS,15,0,8,22,DAYS,,Y
BBC,BBC-10-042,042,10,181,ARM C,3,ARM C,3,Y,Y,Y,Y,10JAN2007,13APR2007,23FEB2007,45,,Week 6,6,Neutrophils (10^9/L),NEUT,23,HEMATOLOGY,4.79,4.79,8.88,8.88,Normal,High,37-50 DAYS,43,2,37,50,DAYS,,Y
BBC,BBC-10-042,042,10,182,ARM C,3,ARM C,3,Y,Y,Y,Y,10JAN2007,13APR2007,13APR2007,94,,Week 12,12,Neutrophils (10^9/L),NEUT,23,HEMATOLOGY,6.22,6.22,8.88,8.88,Normal,High,72-99 DAYS,85,9,72,99,DAYS,,Y
BBC,BBC-10-042,042,10,123,ARM C,3,ARM C,3,Y,Y,Y,Y,10JAN2007,13APR2007,18DEC2006,-23,,,,Eosinophils (10^9/L),EOS,24,HEMATOLOGY,0.13,0.13,0.16,0.16,Normal,Normal,,,,,,,,
BBC,BBC-10-042,042,10,124,ARM C,3,ARM C,3,Y,Y,Y,Y,10JAN2007,13APR2007,10JAN2007,1,,Day 1 Baseline,0,Eosinophils (10^9/L),EOS,24,HEMATOLOGY,0.16,0.16,0.16,0.16,Normal,Normal,,,,,,,Y,Y
BBC,BBC-10-042,042,10,125,ARM C,3,ARM C,3,Y,Y,Y,Y,10JAN2007,13APR2007,24JAN2007,15,,Week 2,2,Eosinophils (10^9/L),EOS,24,HEMATOLOGY,0.14,0.14,0.16,0.16,Normal,Normal,8-22 DAYS,15,0,8,22,DAYS,,Y
BBC,BBC-10-042,042,10,126,ARM C,3,ARM C,3,Y,Y,Y,Y,10JAN2007,13APR2007,23FEB2007,45,,Week 6,6,Eosinophils (10^9/L),EOS,24,HEMATOLOGY,0.07,0.07,0.16,0.16,Normal,Normal,37-50 DAYS,43,2,37,50,DAYS,,Y
BBC,BBC-10-042,042,10,127,ARM C,3,ARM C,3,Y,Y,Y,Y,10JAN2007,13APR2007,13APR2007,94,,Week 12,12,Eosinophils (10^9/L),EOS,24,HEMATOLOGY,0.15,0.15,0.16,0.16,Normal,Normal,72-99 DAYS,85,9,72,99,DAYS,,Y
BBC,BBC-10-042,042,10,113,ARM C,3,ARM C,3,Y,Y,Y,Y,10JAN2007,13APR2007,18DEC2006,-23,,,,Basophils (10^9/L),BASO,25,HEMATOLOGY,0.07,0.07,0.1,0.10,Normal,Normal,,,,,,,,
BBC,BBC-10-042,042,10,114,ARM C,3,ARM C,3,Y,Y,Y,Y,10JAN2007,13APR2007,10JAN2007,1,,Day 1 Baseline,0,Basophils (10^9/L),BASO,25,HEMATOLOGY,0.1,0.10,0.1,0.10,Normal,Normal,,,,,,,Y,Y
BBC,BBC-10-042,042,10,115,ARM C,3,ARM C,3,Y,Y,Y,Y,10JAN2007,13APR2007,24JAN2007,15,,Week 2,2,Basophils (10^9/L),BASO,25,HEMATOLOGY,0.02,0.02,0.1,0.10,Normal,Normal,8-22 DAYS,15,0,8,22,DAYS,,Y
BBC,BBC-10-042,042,10,116,ARM C,3,ARM C,3,Y,Y,Y,Y,10JAN2007,13APR2007,23FEB2007,45,,Week 6,6,Basophils (10^9/L),BASO,25,HEMATOLOGY,0.12,0.12,0.1,0.10,Normal,Normal,37-50 DAYS,43,2,37,50,DAYS,,Y
BBC,BBC-10-042,042,10,117,ARM C,3,ARM C,3,Y,Y,Y,Y,10JAN2007,13APR2007,13APR2007,94,,Week 12,12,Basophils (10^9/L),BASO,25,HEMATOLOGY,0.17,0.17,0.1,0.10,Normal,Normal,72-99 DAYS,85,9,72,99,DAYS,,Y
BBC,BBC-10-042,042,10,203,ARM C,3,ARM C,3,Y,Y,Y,Y,10JAN2007,13APR2007,18DEC2006,-23,,,,Leukocytes (10^9/L),WBC,26,HEMATOLOGY,9,9.0,12.2,12.2,Normal,High,,,,,,,,
BBC,BBC-10-042,042,10,204,ARM C,3,ARM C,3,Y,Y,Y,Y,10JAN2007,13APR2007,10JAN2007,1,,Day 1 Baseline,0,Leukocytes (10^9/L),WBC,26,HEMATOLOGY,12.2,12.2,12.2,12.2,High,High,,,,,,,Y,Y
BBC,BBC-10-042,042,10,205,ARM C,3,ARM C,3,Y,Y,Y,Y,10JAN2007,13APR2007,24JAN2007,15,,Week 2,2,Leukocytes (10^9/L),WBC,26,HEMATOLOGY,9.5,9.5,12.2,12.2,Normal,High,8-22 DAYS,15,0,8,22,DAYS,,Y
BBC,BBC-10-042,042,10,206,ARM C,3,ARM C,3,Y,Y,Y,Y,10JAN2007,13APR2007,23FEB2007,45,,Week 6,6,Leukocytes (10^9/L),WBC,26,HEMATOLOGY,7.4,7.4,12.2,12.2,Normal,High,37-50 DAYS,43,2,37,50,DAYS,,Y
BBC,BBC-10-042,042,10,207,ARM C,3,ARM C,3,Y,Y,Y,Y,10JAN2007,13APR2007,13APR2007,94,,Week 12,12,Leukocytes (10^9/L),WBC,26,HEMATOLOGY,9.4,9.4,12.2,12.2,Normal,High,72-99 DAYS,85,9,72,99,DAYS,,Y
BBC,BBC-10-042,042,10,193,ARM C,3,ARM C,3,Y,Y,Y,Y,10JAN2007,13APR2007,18DEC2006,-23,,,,Erythrocytes (10^12/L),RBC,27,HEMATOLOGY,4.7,4.70,4.75,4.75,Normal,Normal,,,,,,,,
BBC,BBC-10-042,042,10,194,ARM C,3,ARM C,3,Y,Y,Y,Y,10JAN2007,13APR2007,10JAN2007,1,,Day 1 Baseline,0,Erythrocytes (10^12/L),RBC,27,HEMATOLOGY,4.75,4.75,4.75,4.75,Normal,Normal,,,,,,,Y,Y
BBC,BBC-10-042,042,10,195,ARM C,3,ARM C,3,Y,Y,Y,Y,10JAN2007,13APR2007,24JAN2007,15,,Week 2,2,Erythrocytes (10^12/L),RBC,27,HEMATOLOGY,4.62,4.62,4.75,4.75,Normal,Normal,8-22 DAYS,15,0,8,22,DAYS,,Y
BBC,BBC-10-042,042,10,196,ARM C,3,ARM C,3,Y,Y,Y,Y,10JAN2007,13APR2007,23FEB2007,45,,Week 6,6,Erythrocytes (10^12/L),RBC,27,HEMATOLOGY,4.53,4.53,4.75,4.75,Normal,Normal,37-50 DAYS,43,2,37,50,DAYS,,Y
BBC,BBC-10-042,042,10,197,ARM C,3,ARM C,3,Y,Y,Y,Y,10JAN2007,13APR2007,13APR2007,94,,Week 12,12,Erythrocytes (10^12/L),RBC,27,HEMATOLOGY,4.85,4.85,4.75,4.75,Normal,Normal,72-99 DAYS,85,9,72,99,DAYS,,Y
BBC,BBC-10-042,042,10,138,ARM C,3,ARM C,3,Y,Y,Y,Y,10JAN2007,13APR2007,18DEC2006,-23,,,,Hemoglobin (g/dL),HGB,28,HEMATOLOGY,14.2,14.2,14.8,14.8,Normal,Normal,,,,,,,,
BBC,BBC-10-042,042,10,139,ARM C,3,ARM C,3,Y,Y,Y,Y,10JAN2007,13APR2007,10JAN2007,1,,Day 1 Baseline,0,Hemoglobin (g/dL),HGB,28,HEMATOLOGY,14.8,14.8,14.8,14.8,Normal,Normal,,,,,,,Y,Y
BBC,BBC-10-042,042,10,140,ARM C,3,ARM C,3,Y,Y,Y,Y,10JAN2007,13APR2007,24JAN2007,15,,Week 2,2,Hemoglobin (g/dL),HGB,28,HEMATOLOGY,14.3,14.3,14.8,14.8,Normal,Normal,8-22 DAYS,15,0,8,22,DAYS,,Y
BBC,BBC-10-042,042,10,141,ARM C,3,ARM C,3,Y,Y,Y,Y,10JAN2007,13APR2007,23FEB2007,45,,Week 6,6,Hemoglobin (g/dL),HGB,28,HEMATOLOGY,14.6,14.6,14.8,14.8,Normal,Normal,37-50 DAYS,43,2,37,50,DAYS,,Y
BBC,BBC-10-042,042,10,142,ARM C,3,ARM C,3,Y,Y,Y,Y,10JAN2007,13APR2007,13APR2007,94,,Week 12,12,Hemoglobin (g/dL),HGB,28,HEMATOLOGY,15.4,15.4,14.8,14.8,Normal,Normal,72-99 DAYS,85,9,72,99,DAYS,,Y
BBC,BBC-10-042,042,10,133,ARM C,3,ARM C,3,Y,Y,Y,Y,10JAN2007,13APR2007,18DEC2006,-23,,,,Hematocrit (%),HCT,29,HEMATOLOGY,41.6,41.6,42,42.0,Normal,Normal,,,,,,,,
BBC,BBC-10-042,042,10,134,ARM C,3,ARM C,3,Y,Y,Y,Y,10JAN2007,13APR2007,10JAN2007,1,,Day 1 Baseline,0,Hematocrit (%),HCT,29,HEMATOLOGY,42,42.0,42,42.0,Normal,Normal,,,,,,,Y,Y
BBC,BBC-10-042,042,10,135,ARM C,3,ARM C,3,Y,Y,Y,Y,10JAN2007,13APR2007,24JAN2007,15,,Week 2,2,Hematocrit (%),HCT,29,HEMATOLOGY,40.3,40.3,42,42.0,Normal,Normal,8-22 DAYS,15,0,8,22,DAYS,,Y
BBC,BBC-10-042,042,10,136,ARM C,3,ARM C,3,Y,Y,Y,Y,10JAN2007,13APR2007,23FEB2007,45,,Week 6,6,Hematocrit (%),HCT,29,HEMATOLOGY,41.1,41.1,42,42.0,Normal,Normal,37-50 DAYS,43,2,37,50,DAYS,,Y
BBC,BBC-10-042,042,10,137,ARM C,3,ARM C,3,Y,Y,Y,Y,10JAN2007,13APR2007,13APR2007,94,,Week 12,12,Hematocrit (%),HCT,29,HEMATOLOGY,43.6,43.6,42,42.0,Normal,Normal,72-99 DAYS,85,9,72,99,DAYS,,Y
BBC,BBC-10-042,042,10,163,ARM C,3,ARM C,3,Y,Y,Y,Y,10JAN2007,13APR2007,18DEC2006,-23,,,,Ery. Mean Corpuscular Volume (fL),MCV,30,HEMATOLOGY,88.5,88.5,88.5,88.5,Normal,Normal,,,,,,,,
BBC,BBC-10-042,042,10,164,ARM C,3,ARM C,3,Y,Y,Y,Y,10JAN2007,13APR2007,10JAN2007,1,,Day 1 Baseline,0,Ery. Mean Corpuscular Volume (fL),MCV,30,HEMATOLOGY,88.5,88.5,88.5,88.5,Normal,Normal,,,,,,,Y,Y
BBC,BBC-10-042,042,10,165,ARM C,3,ARM C,3,Y,Y,Y,Y,10JAN2007,13APR2007,24JAN2007,15,,Week 2,2,Ery. Mean Corpuscular Volume (fL),MCV,30,HEMATOLOGY,87.2,87.2,88.5,88.5,Normal,Normal,8-22 DAYS,15,0,8,22,DAYS,,Y
BBC,BBC-10-042,042,10,166,ARM C,3,ARM C,3,Y,Y,Y,Y,10JAN2007,13APR2007,23FEB2007,45,,Week 6,6,Ery. Mean Corpuscular Volume (fL),MCV,30,HEMATOLOGY,90.7,90.7,88.5,88.5,Normal,Normal,37-50 DAYS,43,2,37,50,DAYS,,Y
BBC,BBC-10-042,042,10,167,ARM C,3,ARM C,3,Y,Y,Y,Y,10JAN2007,13APR2007,13APR2007,94,,Week 12,12,Ery. Mean Corpuscular Volume (fL),MCV,30,HEMATOLOGY,89.8,89.8,88.5,88.5,Normal,Normal,72-99 DAYS,85,9,72,99,DAYS,,Y
BBC,BBC-10-042,042,10,153,ARM C,3,ARM C,3,Y,Y,Y,Y,10JAN2007,13APR2007,18DEC2006,-23,,,,Ery. Mean Corpuscular Hemoglobin (pg),MCH,31,HEMATOLOGY,30.3,30.3,31.2,31.2,Normal,Normal,,,,,,,,
BBC,BBC-10-042,042,10,154,ARM C,3,ARM C,3,Y,Y,Y,Y,10JAN2007,13APR2007,10JAN2007,1,,Day 1 Baseline,0,Ery. Mean Corpuscular Hemoglobin (pg),MCH,31,HEMATOLOGY,31.2,31.2,31.2,31.2,Normal,Normal,,,,,,,Y,Y
BBC,BBC-10-042,042,10,155,ARM C,3,ARM C,3,Y,Y,Y,Y,10JAN2007,13APR2007,24JAN2007,15,,Week 2,2,Ery. Mean Corpuscular Hemoglobin (pg),MCH,31,HEMATOLOGY,30.9,30.9,31.2,31.2,Normal,Normal,8-22 DAYS,15,0,8,22,DAYS,,Y
BBC,BBC-10-042,042,10,156,ARM C,3,ARM C,3,Y,Y,Y,Y,10JAN2007,13APR2007,23FEB2007,45,,Week 6,6,Ery. Mean Corpuscular Hemoglobin (pg),MCH,31,HEMATOLOGY,32.2,32.2,31.2,31.2,Normal,Normal,37-50 DAYS,43,2,37,50,DAYS,,Y
BBC,BBC-10-042,042,10,157,ARM C,3,ARM C,3,Y,Y,Y,Y,10JAN2007,13APR2007,13APR2007,94,,Week 12,12,Ery. Mean Corpuscular Hemoglobin (pg),MCH,31,HEMATOLOGY,31.7,31.7,31.2,31.2,Normal,Normal,72-99 DAYS,85,9,72,99,DAYS,,Y
BBC,BBC-10-042,042,10,158,ARM C,3,ARM C,3,Y,Y,Y,Y,10JAN2007,13APR2007,18DEC2006,-23,,,,Ery. Mean Corpuscular HGB Concentration (g/dL),MCHC,32,HEMATOLOGY,34.3,34.3,35.2,35.2,Normal,High,,,,,,,,
BBC,BBC-10-042,042,10,159,ARM C,3,ARM C,3,Y,Y,Y,Y,10JAN2007,13APR2007,10JAN2007,1,,Day 1 Baseline,0,Ery. Mean Corpuscular HGB Concentration (g/dL),MCHC,32,HEMATOLOGY,35.2,35.2,35.2,35.2,High,High,,,,,,,Y,Y
BBC,BBC-10-042,042,10,160,ARM C,3,ARM C,3,Y,Y,Y,Y,10JAN2007,13APR2007,24JAN2007,15,,Week 2,2,Ery. Mean Corpuscular HGB Concentration (g/dL),MCHC,32,HEMATOLOGY,35.5,35.5,35.2,35.2,High,High,8-22 DAYS,15,0,8,22,DAYS,,Y
BBC,BBC-10-042,042,10,161,ARM C,3,ARM C,3,Y,Y,Y,Y,10JAN2007,13APR2007,23FEB2007,45,,Week 6,6,Ery. Mean Corpuscular HGB Concentration (g/dL),MCHC,32,HEMATOLOGY,35.5,35.5,35.2,35.2,High,High,37-50 DAYS,43,2,37,50,DAYS,,Y
BBC,BBC-10-042,042,10,162,ARM C,3,ARM C,3,Y,Y,Y,Y,10JAN2007,13APR2007,13APR2007,94,,Week 12,12,Ery. Mean Corpuscular HGB Concentration (g/dL),MCHC,32,HEMATOLOGY,35.3,35.3,35.2,35.2,High,High,72-99 DAYS,85,9,72,99,DAYS,,Y
BBC,BBC-10-042,042,10,226,ARM C,3,ARM C,3,Y,Y,Y,Y,10JAN2007,13APR2007,18DEC2006,-23,,,,Creatinine (mg/dL),CREACONC,33,URINALYSIS,94,94,76,76,,,,,,,,,,
BBC,BBC-10-042,042,10,227,ARM C,3,ARM C,3,Y,Y,Y,Y,10JAN2007,13APR2007,10JAN2007,1,,Day 1 Baseline,0,Creatinine (mg/dL),CREACONC,33,URINALYSIS,76,76,76,76,,,,,,,,,Y,Y
BBC,BBC-10-042,042,10,228,ARM C,3,ARM C,3,Y,Y,Y,Y,10JAN2007,13APR2007,24JAN2007,15,,Week 2,2,Creatinine (mg/dL),CREACONC,33,URINALYSIS,116,116,76,76,,,8-22 DAYS,15,0,8,22,DAYS,,Y
BBC,BBC-10-042,042,10,229,ARM C,3,ARM C,3,Y,Y,Y,Y,10JAN2007,13APR2007,23FEB2007,45,,Week 6,6,Creatinine (mg/dL),CREACONC,33,URINALYSIS,158,158,76,76,,,37-50 DAYS,43,2,37,50,DAYS,,Y
BBC,BBC-10-042,042,10,230,ARM C,3,ARM C,3,Y,Y,Y,Y,10JAN2007,13APR2007,13APR2007,94,,Week 12,12,Creatinine (mg/dL),CREACONC,33,URINALYSIS,191,191,76,76,,,72-99 DAYS,85,9,72,99,DAYS,,Y
BBC,BBC-10-042,042,10,216,ARM C,3,ARM C,3,Y,Y,Y,Y,10JAN2007,13APR2007,18DEC2006,-23,,,,Calcium (mg/L),CACONC,34,URINALYSIS,145,145.000000,295,295.000000,,,,,,,,,,
BBC,BBC-10-042,042,10,217,ARM C,3,ARM C,3,Y,Y,Y,Y,10JAN2007,13APR2007,10JAN2007,1,,Day 1 Baseline,0,Calcium (mg/L),CACONC,34,URINALYSIS,295,295.000000,295,295.000000,,,,,,,,,Y,Y
BBC,BBC-10-042,042,10,218,ARM C,3,ARM C,3,Y,Y,Y,Y,10JAN2007,13APR2007,24JAN2007,15,,Week 2,2,Calcium (mg/L),CACONC,34,URINALYSIS,222,222.000000,295,295.000000,,,8-22 DAYS,15,0,8,22,DAYS,,Y
BBC,BBC-10-042,042,10,219,ARM C,3,ARM C,3,Y,Y,Y,Y,10JAN2007,13APR2007,23FEB2007,45,,Week 6,6,Calcium (mg/L),CACONC,34,URINALYSIS,85,85.000000,295,295.000000,,,37-50 DAYS,43,2,37,50,DAYS,,Y
BBC,BBC-10-042,042,10,220,ARM C,3,ARM C,3,Y,Y,Y,Y,10JAN2007,13APR2007,13APR2007,94,,Week 12,12,Calcium (mg/L),CACONC,34,URINALYSIS,150,150.000000,295,295.000000,,,72-99 DAYS,85,9,72,99,DAYS,,Y
BBC,BBC-10-042,042,10,221,ARM C,3,ARM C,3,Y,Y,Y,Y,10JAN2007,13APR2007,18DEC2006,-23,,,,Calcium/Creatinine Ratio,CACREAT,35,URINALYSIS,0.15,0.15,0.39,0.39,,,,,,,,,,
BBC,BBC-10-042,042,10,222,ARM C,3,ARM C,3,Y,Y,Y,Y,10JAN2007,13APR2007,10JAN2007,1,,Day 1 Baseline,0,Calcium/Creatinine Ratio,CACREAT,35,URINALYSIS,0.39,0.39,0.39,0.39,,,,,,,,,Y,Y
BBC,BBC-10-042,042,10,223,ARM C,3,ARM C,3,Y,Y,Y,Y,10JAN2007,13APR2007,24JAN2007,15,,Week 2,2,Calcium/Creatinine Ratio,CACREAT,35,URINALYSIS,0.19,0.19,0.39,0.39,,,8-22 DAYS,15,0,8,22,DAYS,,Y
BBC,BBC-10-042,042,10,224,ARM C,3,ARM C,3,Y,Y,Y,Y,10JAN2007,13APR2007,23FEB2007,45,,Week 6,6,Calcium/Creatinine Ratio,CACREAT,35,URINALYSIS,0.05,0.05,0.39,0.39,,,37-50 DAYS,43,2,37,50,DAYS,,Y
BBC,BBC-10-042,042,10,225,ARM C,3,ARM C,3,Y,Y,Y,Y,10JAN2007,13APR2007,13APR2007,94,,Week 12,12,Calcium/Creatinine Ratio,CACREAT,35,URINALYSIS,0.08,0.08,0.39,0.39,,,72-99 DAYS,85,9,72,99,DAYS,,Y
BBC,BBC-10-042,042,10,283,ARM C,3,ARM C,3,Y,Y,Y,Y,10JAN2007,13APR2007,18DEC2006,-23,,,,Phosphate Concentration (mg/dL),PHOSCONC,36,URINALYSIS,52,52.0,47,47.0,,,,,,,,,,
BBC,BBC-10-042,042,10,284,ARM C,3,ARM C,3,Y,Y,Y,Y,10JAN2007,13APR2007,10JAN2007,1,,Day 1 Baseline,0,Phosphate Concentration (mg/dL),PHOSCONC,36,URINALYSIS,47,47.0,47,47.0,,,,,,,,,Y,Y
BBC,BBC-10-042,042,10,285,ARM C,3,ARM C,3,Y,Y,Y,Y,10JAN2007,13APR2007,24JAN2007,15,,Week 2,2,Phosphate Concentration (mg/dL),PHOSCONC,36,URINALYSIS,63,63.0,47,47.0,,,8-22 DAYS,15,0,8,22,DAYS,,Y
BBC,BBC-10-042,042,10,286,ARM C,3,ARM C,3,Y,Y,Y,Y,10JAN2007,13APR2007,23FEB2007,45,,Week 6,6,Phosphate Concentration (mg/dL),PHOSCONC,36,URINALYSIS,91,91.0,47,47.0,,,37-50 DAYS,43,2,37,50,DAYS,,Y
BBC,BBC-10-042,042,10,287,ARM C,3,ARM C,3,Y,Y,Y,Y,10JAN2007,13APR2007,13APR2007,94,,Week 12,12,Phosphate Concentration (mg/dL),PHOSCONC,36,URINALYSIS,213,213.0,47,47.0,,,72-99 DAYS,85,9,72,99,DAYS,,Y
BBC,BBC-10-042,042,10,98,ARM C,3,ARM C,3,Y,Y,Y,Y,10JAN2007,13APR2007,23FEB2007,45,,Week 6,6,"Parathyroid Hormone, PTH (pmol/L)",PTHI,37,ENDOCRINE,8.5,8.5,,,High,,37-50 DAYS,43,2,37,50,DAYS,,Y
BBC,BBC-10-042,042,10,110,ARM C,3,ARM C,3,Y,Y,Y,Y,10JAN2007,13APR2007,10JAN2007,1,,Day 1 Baseline,0,25-Hydroxyvitamin D3 (ug/L),VITDIT3,38,ENDOCRINE,15,15.0,15,15.0,,,,,,,,,Y,Y
BBC,BBC-10-042,042,10,111,ARM C,3,ARM C,3,Y,Y,Y,Y,10JAN2007,13APR2007,23FEB2007,45,,Week 6,6,25-Hydroxyvitamin D3 (ug/L),VITDIT3,38,ENDOCRINE,15,15.0,15,15.0,,,37-50 DAYS,43,2,37,50,DAYS,,Y
BBC,BBC-10-042,042,10,112,ARM C,3,ARM C,3,Y,Y,Y,Y,10JAN2007,13APR2007,13APR2007,94,,Week 12,12,25-Hydroxyvitamin D3 (ug/L),VITDIT3,38,ENDOCRINE,15,15.0,15,15.0,,,72-99 DAYS,85,9,72,99,DAYS,,Y
BBC,BBC-10-042,042,10,93,ARM C,3,ARM C,3,Y,Y,Y,Y,10JAN2007,13APR2007,23FEB2007,45,,Week 6,6,Osteocalcin (ug/L),OSTEOC,39,ENDOCRINE,13.3,13.3,,,,,37-50 DAYS,43,2,37,50,DAYS,,Y
BBC,BBC-10-042,042,10,101,ARM C,3,ARM C,3,Y,Y,Y,Y,10JAN2007,13APR2007,10JAN2007,1,,Day 1 Baseline,0,"1, 25-Dihydroxyvitamin D (pmol/L)",VITDAT,40,ENDOCRINE,6.72,6.72,6.72,6.72,Normal,Normal,,,,,,,Y,Y
BBC,BBC-10-042,042,10,102,ARM C,3,ARM C,3,Y,Y,Y,Y,10JAN2007,13APR2007,23FEB2007,45,,Week 6,6,"1, 25-Dihydroxyvitamin D (pmol/L)",VITDAT,40,ENDOCRINE,4.52,4.52,6.72,6.72,Normal,Normal,37-50 DAYS,43,2,37,50,DAYS,,Y
BBC,BBC-10-042,042,10,103,ARM C,3,ARM C,3,Y,Y,Y,Y,10JAN2007,13APR2007,13APR2007,94,,Week 12,12,"1, 25-Dihydroxyvitamin D (pmol/L)",VITDAT,40,ENDOCRINE,4.41,4.41,6.72,6.72,Normal,Normal,72-99 DAYS,85,9,72,99,DAYS,,Y
BBC,BBC-10-043,043,10,31,ARM A,1,ARM A,1,Y,Y,Y,Y,09FEB2007,03MAY2007,18DEC2006,-53,,,,Total Calcium (mg/dL),CA,1,CHEMISTRY,8.9,8.9,9.1,9.1,Normal,Normal,,,,,,,,
BBC,BBC-10-043,043,10,32,ARM A,1,ARM A,1,Y,Y,Y,Y,09FEB2007,03MAY2007,09FEB2007,1,,Day 1 Baseline,0,Total Calcium (mg/dL),CA,1,CHEMISTRY,9.1,9.1,9.1,9.1,Normal,Normal,,,,,,,Y,Y
BBC,BBC-10-043,043,10,33,ARM A,1,ARM A,1,Y,Y,Y,Y,09FEB2007,03MAY2007,23FEB2007,15,,Week 2,2,Total Calcium (mg/dL),CA,1,CHEMISTRY,9.3,9.3,9.1,9.1,Normal,Normal,8-22 DAYS,15,0,8,22,DAYS,,Y
BBC,BBC-10-043,043,10,34,ARM A,1,ARM A,1,Y,Y,Y,Y,09FEB2007,03MAY2007,23MAR2007,43,,Week 6,6,Total Calcium (mg/dL),CA,1,CHEMISTRY,9.2,9.2,9.1,9.1,Normal,Normal,37-50 DAYS,43,0,37,50,DAYS,,Y
BBC,BBC-10-043,043,10,35,ARM A,1,ARM A,1,Y,Y,Y,Y,09FEB2007,03MAY2007,03MAY2007,84,,Week 12,12,Total Calcium (mg/dL),CA,1,CHEMISTRY,9,9.0,9.1,9.1,Normal,Normal,72-99 DAYS,85,1,72,99,DAYS,,Y
BBC,BBC-10-043,043,10,56,ARM A,1,ARM A,1,Y,Y,Y,Y,09FEB2007,03MAY2007,18DEC2006,-53,,,,Potassium (mmol/L),K,2,CHEMISTRY,3.4,3.4,4,4.0,Low,Normal,,,,,,,,
BBC,BBC-10-043,043,10,57,ARM A,1,ARM A,1,Y,Y,Y,Y,09FEB2007,03MAY2007,09FEB2007,1,,Day 1 Baseline,0,Potassium (mmol/L),K,2,CHEMISTRY,4,4.0,4,4.0,Normal,Normal,,,,,,,Y,Y
BBC,BBC-10-043,043,10,58,ARM A,1,ARM A,1,Y,Y,Y,Y,09FEB2007,03MAY2007,23FEB2007,15,,Week 2,2,Potassium (mmol/L),K,2,CHEMISTRY,4.1,4.1,4,4.0,Normal,Normal,8-22 DAYS,15,0,8,22,DAYS,,Y
BBC,BBC-10-043,043,10,59,ARM A,1,ARM A,1,Y,Y,Y,Y,09FEB2007,03MAY2007,23MAR2007,43,,Week 6,6,Potassium (mmol/L),K,2,CHEMISTRY,3.7,3.7,4,4.0,Normal,Normal,37-50 DAYS,43,0,37,50,DAYS,,Y
BBC,BBC-10-043,043,10,60,ARM A,1,ARM A,1,Y,Y,Y,Y,09FEB2007,03MAY2007,03MAY2007,84,,Week 12,12,Potassium (mmol/L),K,2,CHEMISTRY,4.1,4.1,4,4.0,Normal,Normal,72-99 DAYS,85,1,72,99,DAYS,,Y
BBC,BBC-10-043,043,10,41,ARM A,1,ARM A,1,Y,Y,Y,Y,09FEB2007,03MAY2007,18DEC2006,-53,,,,Chloride (mmol/L),CL,3,CHEMISTRY,103,103,102,102,Normal,Normal,,,,,,,,
BBC,BBC-10-043,043,10,42,ARM A,1,ARM A,1,Y,Y,Y,Y,09FEB2007,03MAY2007,09FEB2007,1,,Day 1 Baseline,0,Chloride (mmol/L),CL,3,CHEMISTRY,102,102,102,102,Normal,Normal,,,,,,,Y,Y
BBC,BBC-10-043,043,10,43,ARM A,1,ARM A,1,Y,Y,Y,Y,09FEB2007,03MAY2007,23FEB2007,15,,Week 2,2,Chloride (mmol/L),CL,3,CHEMISTRY,105,105,102,102,Normal,Normal,8-22 DAYS,15,0,8,22,DAYS,,Y
BBC,BBC-10-043,043,10,44,ARM A,1,ARM A,1,Y,Y,Y,Y,09FEB2007,03MAY2007,23MAR2007,43,,Week 6,6,Chloride (mmol/L),CL,3,CHEMISTRY,103,103,102,102,Normal,Normal,37-50 DAYS,43,0,37,50,DAYS,,Y
BBC,BBC-10-043,043,10,45,ARM A,1,ARM A,1,Y,Y,Y,Y,09FEB2007,03MAY2007,03MAY2007,84,,Week 12,12,Chloride (mmol/L),CL,3,CHEMISTRY,104,104,102,102,Normal,Normal,72-99 DAYS,85,1,72,99,DAYS,,Y
BBC,BBC-10-043,043,10,21,ARM A,1,ARM A,1,Y,Y,Y,Y,09FEB2007,03MAY2007,18DEC2006,-53,,,,Total Bilirubin (mg/dL),BILI,4,CHEMISTRY,0.3,0.3,0.4,0.4,Normal,Normal,,,,,,,,
BBC,BBC-10-043,043,10,22,ARM A,1,ARM A,1,Y,Y,Y,Y,09FEB2007,03MAY2007,09FEB2007,1,,Day 1 Baseline,0,Total Bilirubin (mg/dL),BILI,4,CHEMISTRY,0.4,0.4,0.4,0.4,Normal,Normal,,,,,,,Y,Y
BBC,BBC-10-043,043,10,23,ARM A,1,ARM A,1,Y,Y,Y,Y,09FEB2007,03MAY2007,23FEB2007,15,,Week 2,2,Total Bilirubin (mg/dL),BILI,4,CHEMISTRY,0.3,0.3,0.4,0.4,Normal,Normal,8-22 DAYS,15,0,8,22,DAYS,,Y
BBC,BBC-10-043,043,10,24,ARM A,1,ARM A,1,Y,Y,Y,Y,09FEB2007,03MAY2007,23MAR2007,43,,Week 6,6,Total Bilirubin (mg/dL),BILI,4,CHEMISTRY,0.2,0.2,0.4,0.4,Normal,Normal,37-50 DAYS,43,0,37,50,DAYS,,Y
BBC,BBC-10-043,043,10,25,ARM A,1,ARM A,1,Y,Y,Y,Y,09FEB2007,03MAY2007,03MAY2007,84,,Week 12,12,Total Bilirubin (mg/dL),BILI,4,CHEMISTRY,0.2,0.2,0.4,0.4,Normal,Normal,72-99 DAYS,85,1,72,99,DAYS,,Y
BBC,BBC-10-043,043,10,76,ARM A,1,ARM A,1,Y,Y,Y,Y,09FEB2007,03MAY2007,18DEC2006,-53,,,,Sodium (mmol/L),SODIUM,5,CHEMISTRY,139,139,136,136,Normal,Normal,,,,,,,,
BBC,BBC-10-043,043,10,77,ARM A,1,ARM A,1,Y,Y,Y,Y,09FEB2007,03MAY2007,09FEB2007,1,,Day 1 Baseline,0,Sodium (mmol/L),SODIUM,5,CHEMISTRY,136,136,136,136,Normal,Normal,,,,,,,Y,Y
BBC,BBC-10-043,043,10,78,ARM A,1,ARM A,1,Y,Y,Y,Y,09FEB2007,03MAY2007,23FEB2007,15,,Week 2,2,Sodium (mmol/L),SODIUM,5,CHEMISTRY,139,139,136,136,Normal,Normal,8-22 DAYS,15,0,8,22,DAYS,,Y
BBC,BBC-10-043,043,10,79,ARM A,1,ARM A,1,Y,Y,Y,Y,09FEB2007,03MAY2007,23MAR2007,43,,Week 6,6,Sodium (mmol/L),SODIUM,5,CHEMISTRY,138,138,136,136,Normal,Normal,37-50 DAYS,43,0,37,50,DAYS,,Y
BBC,BBC-10-043,043,10,80,ARM A,1,ARM A,1,Y,Y,Y,Y,09FEB2007,03MAY2007,03MAY2007,84,,Week 12,12,Sodium (mmol/L),SODIUM,5,CHEMISTRY,138,138,136,136,Normal,Normal,72-99 DAYS,85,1,72,99,DAYS,,Y
BBC,BBC-10-043,043,10,16,ARM A,1,ARM A,1,Y,Y,Y,Y,09FEB2007,03MAY2007,18DEC2006,-53,,,,"Aspartate Aminotransferase, AST (U/L)",AST,6,CHEMISTRY,19,19,17,17,Normal,Normal,,,,,,,,
BBC,BBC-10-043,043,10,17,ARM A,1,ARM A,1,Y,Y,Y,Y,09FEB2007,03MAY2007,09FEB2007,1,,Day 1 Baseline,0,"Aspartate Aminotransferase, AST (U/L)",AST,6,CHEMISTRY,17,17,17,17,Normal,Normal,,,,,,,Y,Y
BBC,BBC-10-043,043,10,18,ARM A,1,ARM A,1,Y,Y,Y,Y,09FEB2007,03MAY2007,23FEB2007,15,,Week 2,2,"Aspartate Aminotransferase, AST (U/L)",AST,6,CHEMISTRY,19,19,17,17,Normal,Normal,8-22 DAYS,15,0,8,22,DAYS,,Y
BBC,BBC-10-043,043,10,19,ARM A,1,ARM A,1,Y,Y,Y,Y,09FEB2007,03MAY2007,23MAR2007,43,,Week 6,6,"Aspartate Aminotransferase, AST (U/L)",AST,6,CHEMISTRY,18,18,17,17,Normal,Normal,37-50 DAYS,43,0,37,50,DAYS,,Y
BBC,BBC-10-043,043,10,20,ARM A,1,ARM A,1,Y,Y,Y,Y,09FEB2007,03MAY2007,03MAY2007,84,,Week 12,12,"Aspartate Aminotransferase, AST (U/L)",AST,6,CHEMISTRY,16,16,17,17,Normal,Normal,72-99 DAYS,85,1,72,99,DAYS,,Y
BBC,BBC-10-043,043,10,11,ARM A,1,ARM A,1,Y,Y,Y,Y,09FEB2007,03MAY2007,18DEC2006,-53,,,,"Alanine Aminotransferase, ALT (U/L)",ALT,7,CHEMISTRY,16,16,16,16,Normal,Normal,,,,,,,,
BBC,BBC-10-043,043,10,12,ARM A,1,ARM A,1,Y,Y,Y,Y,09FEB2007,03MAY2007,09FEB2007,1,,Day 1 Baseline,0,"Alanine Aminotransferase, ALT (U/L)",ALT,7,CHEMISTRY,16,16,16,16,Normal,Normal,,,,,,,Y,Y
BBC,BBC-10-043,043,10,13,ARM A,1,ARM A,1,Y,Y,Y,Y,09FEB2007,03MAY2007,23FEB2007,15,,Week 2,2,"Alanine Aminotransferase, ALT (U/L)",ALT,7,CHEMISTRY,18,18,16,16,Normal,Normal,8-22 DAYS,15,0,8,22,DAYS,,Y
BBC,BBC-10-043,043,10,14,ARM A,1,ARM A,1,Y,Y,Y,Y,09FEB2007,03MAY2007,23MAR2007,43,,Week 6,6,"Alanine Aminotransferase, ALT (U/L)",ALT,7,CHEMISTRY,13,13,16,16,Normal,Normal,37-50 DAYS,43,0,37,50,DAYS,,Y
BBC,BBC-10-043,043,10,15,ARM A,1,ARM A,1,Y,Y,Y,Y,09FEB2007,03MAY2007,03MAY2007,84,,Week 12,12,"Alanine Aminotransferase, ALT (U/L)",ALT,7,CHEMISTRY,10,10,16,16,Normal,Normal,72-99 DAYS,85,1,72,99,DAYS,,Y
BBC,BBC-10-043,043,10,26,ARM A,1,ARM A,1,Y,Y,Y,Y,09FEB2007,03MAY2007,18DEC2006,-53,,,,"Blood Urea Nitrogen, BUN (mg/dL)",BUN,8,CHEMISTRY,11,11,10,10,Normal,Normal,,,,,,,,
BBC,BBC-10-043,043,10,27,ARM A,1,ARM A,1,Y,Y,Y,Y,09FEB2007,03MAY2007,09FEB2007,1,,Day 1 Baseline,0,"Blood Urea Nitrogen, BUN (mg/dL)",BUN,8,CHEMISTRY,10,10,10,10,Normal,Normal,,,,,,,Y,Y
BBC,BBC-10-043,043,10,28,ARM A,1,ARM A,1,Y,Y,Y,Y,09FEB2007,03MAY2007,23FEB2007,15,,Week 2,2,"Blood Urea Nitrogen, BUN (mg/dL)",BUN,8,CHEMISTRY,12,12,10,10,Normal,Normal,8-22 DAYS,15,0,8,22,DAYS,,Y
BBC,BBC-10-043,043,10,29,ARM A,1,ARM A,1,Y,Y,Y,Y,09FEB2007,03MAY2007,23MAR2007,43,,Week 6,6,"Blood Urea Nitrogen, BUN (mg/dL)",BUN,8,CHEMISTRY,12,12,10,10,Normal,Normal,37-50 DAYS,43,0,37,50,DAYS,,Y
BBC,BBC-10-043,043,10,30,ARM A,1,ARM A,1,Y,Y,Y,Y,09FEB2007,03MAY2007,03MAY2007,84,,Week 12,12,"Blood Urea Nitrogen, BUN (mg/dL)",BUN,8,CHEMISTRY,9,9,10,10,Normal,Normal,72-99 DAYS,85,1,72,99,DAYS,,Y
BBC,BBC-10-043,043,10,51,ARM A,1,ARM A,1,Y,Y,Y,Y,09FEB2007,03MAY2007,18DEC2006,-53,,,,Glucose (mg/dL),GLUC,9,CHEMISTRY,84,84,81,81,Normal,Normal,,,,,,,,
BBC,BBC-10-043,043,10,52,ARM A,1,ARM A,1,Y,Y,Y,Y,09FEB2007,03MAY2007,09FEB2007,1,,Day 1 Baseline,0,Glucose (mg/dL),GLUC,9,CHEMISTRY,81,81,81,81,Normal,Normal,,,,,,,Y,Y
BBC,BBC-10-043,043,10,53,ARM A,1,ARM A,1,Y,Y,Y,Y,09FEB2007,03MAY2007,23FEB2007,15,,Week 2,2,Glucose (mg/dL),GLUC,9,CHEMISTRY,84,84,81,81,Normal,Normal,8-22 DAYS,15,0,8,22,DAYS,,Y
BBC,BBC-10-043,043,10,54,ARM A,1,ARM A,1,Y,Y,Y,Y,09FEB2007,03MAY2007,23MAR2007,43,,Week 6,6,Glucose (mg/dL),GLUC,9,CHEMISTRY,100,100,81,81,Normal,Normal,37-50 DAYS,43,0,37,50,DAYS,,Y
BBC,BBC-10-043,043,10,55,ARM A,1,ARM A,1,Y,Y,Y,Y,09FEB2007,03MAY2007,03MAY2007,84,,Week 12,12,Glucose (mg/dL),GLUC,9,CHEMISTRY,84,84,81,81,Normal,Normal,72-99 DAYS,85,1,72,99,DAYS,,Y
BBC,BBC-10-043,043,10,6,ARM A,1,ARM A,1,Y,Y,Y,Y,09FEB2007,03MAY2007,18DEC2006,-53,,,,Alkaline Phosphatase (U/L),ALP,10,CHEMISTRY,62,62,41,41,Normal,Normal,,,,,,,,
BBC,BBC-10-043,043,10,7,ARM A,1,ARM A,1,Y,Y,Y,Y,09FEB2007,03MAY2007,09FEB2007,1,,Day 1 Baseline,0,Alkaline Phosphatase (U/L),ALP,10,CHEMISTRY,41,41,41,41,Normal,Normal,,,,,,,Y,Y
BBC,BBC-10-043,043,10,8,ARM A,1,ARM A,1,Y,Y,Y,Y,09FEB2007,03MAY2007,23FEB2007,15,,Week 2,2,Alkaline Phosphatase (U/L),ALP,10,CHEMISTRY,41,41,41,41,Normal,Normal,8-22 DAYS,15,0,8,22,DAYS,,Y
BBC,BBC-10-043,043,10,9,ARM A,1,ARM A,1,Y,Y,Y,Y,09FEB2007,03MAY2007,23MAR2007,43,,Week 6,6,Alkaline Phosphatase (U/L),ALP,10,CHEMISTRY,42,42,41,41,Normal,Normal,37-50 DAYS,43,0,37,50,DAYS,,Y
BBC,BBC-10-043,043,10,10,ARM A,1,ARM A,1,Y,Y,Y,Y,09FEB2007,03MAY2007,03MAY2007,84,,Week 12,12,Alkaline Phosphatase (U/L),ALP,10,CHEMISTRY,35,35,41,41,Low,Normal,72-99 DAYS,85,1,72,99,DAYS,,Y
BBC,BBC-10-043,043,10,86,ARM A,1,ARM A,1,Y,Y,Y,Y,09FEB2007,03MAY2007,18DEC2006,-53,,,,Uric Acid (mg/dL),URATE,11,CHEMISTRY,4.3,4.3,3.9,3.9,Normal,Normal,,,,,,,,
BBC,BBC-10-043,043,10,87,ARM A,1,ARM A,1,Y,Y,Y,Y,09FEB2007,03MAY2007,09FEB2007,1,,Day 1 Baseline,0,Uric Acid (mg/dL),URATE,11,CHEMISTRY,3.9,3.9,3.9,3.9,Normal,Normal,,,,,,,Y,Y
BBC,BBC-10-043,043,10,88,ARM A,1,ARM A,1,Y,Y,Y,Y,09FEB2007,03MAY2007,23FEB2007,15,,Week 2,2,Uric Acid (mg/dL),URATE,11,CHEMISTRY,4,4.0,3.9,3.9,Normal,Normal,8-22 DAYS,15,0,8,22,DAYS,,Y
BBC,BBC-10-043,043,10,89,ARM A,1,ARM A,1,Y,Y,Y,Y,09FEB2007,03MAY2007,23MAR2007,43,,Week 6,6,Uric Acid (mg/dL),URATE,11,CHEMISTRY,3.8,3.8,3.9,3.9,Normal,Normal,37-50 DAYS,43,0,37,50,DAYS,,Y
BBC,BBC-10-043,043,10,90,ARM A,1,ARM A,1,Y,Y,Y,Y,09FEB2007,03MAY2007,03MAY2007,84,,Week 12,12,Uric Acid (mg/dL),URATE,11,CHEMISTRY,4.3,4.3,3.9,3.9,Normal,Normal,72-99 DAYS,85,1,72,99,DAYS,,Y
BBC,BBC-10-043,043,10,66,ARM A,1,ARM A,1,Y,Y,Y,Y,09FEB2007,03MAY2007,18DEC2006,-53,,,,Inorganic Phosphorus (mg/dL),PHOS,12,CHEMISTRY,2.7,2.7,3.1,3.1,Normal,Normal,,,,,,,,
BBC,BBC-10-043,043,10,67,ARM A,1,ARM A,1,Y,Y,Y,Y,09FEB2007,03MAY2007,09FEB2007,1,,Day 1 Baseline,0,Inorganic Phosphorus (mg/dL),PHOS,12,CHEMISTRY,3.1,3.1,3.1,3.1,Normal,Normal,,,,,,,Y,Y
BBC,BBC-10-043,043,10,68,ARM A,1,ARM A,1,Y,Y,Y,Y,09FEB2007,03MAY2007,23FEB2007,15,,Week 2,2,Inorganic Phosphorus (mg/dL),PHOS,12,CHEMISTRY,3.2,3.2,3.1,3.1,Normal,Normal,8-22 DAYS,15,0,8,22,DAYS,,Y
BBC,BBC-10-043,043,10,69,ARM A,1,ARM A,1,Y,Y,Y,Y,09FEB2007,03MAY2007,23MAR2007,43,,Week 6,6,Inorganic Phosphorus (mg/dL),PHOS,12,CHEMISTRY,3.1,3.1,3.1,3.1,Normal,Normal,37-50 DAYS,43,0,37,50,DAYS,,Y
BBC,BBC-10-043,043,10,70,ARM A,1,ARM A,1,Y,Y,Y,Y,09FEB2007,03MAY2007,03MAY2007,84,,Week 12,12,Inorganic Phosphorus (mg/dL),PHOS,12,CHEMISTRY,3,3.0,3.1,3.1,Normal,Normal,72-99 DAYS,85,1,72,99,DAYS,,Y
BBC,BBC-10-043,043,10,1,ARM A,1,ARM A,1,Y,Y,Y,Y,09FEB2007,03MAY2007,18DEC2006,-53,,,,Albumin (g/dL),ALB,13,CHEMISTRY,4.2,4.2,4.1,4.1,Normal,Normal,,,,,,,,
BBC,BBC-10-043,043,10,2,ARM A,1,ARM A,1,Y,Y,Y,Y,09FEB2007,03MAY2007,09FEB2007,1,,Day 1 Baseline,0,Albumin (g/dL),ALB,13,CHEMISTRY,4.1,4.1,4.1,4.1,Normal,Normal,,,,,,,Y,Y
BBC,BBC-10-043,043,10,3,ARM A,1,ARM A,1,Y,Y,Y,Y,09FEB2007,03MAY2007,23FEB2007,15,,Week 2,2,Albumin (g/dL),ALB,13,CHEMISTRY,3.9,3.9,4.1,4.1,Normal,Normal,8-22 DAYS,15,0,8,22,DAYS,,Y
BBC,BBC-10-043,043,10,4,ARM A,1,ARM A,1,Y,Y,Y,Y,09FEB2007,03MAY2007,23MAR2007,43,,Week 6,6,Albumin (g/dL),ALB,13,CHEMISTRY,4,4.0,4.1,4.1,Normal,Normal,37-50 DAYS,43,0,37,50,DAYS,,Y
BBC,BBC-10-043,043,10,5,ARM A,1,ARM A,1,Y,Y,Y,Y,09FEB2007,03MAY2007,03MAY2007,84,,Week 12,12,Albumin (g/dL),ALB,13,CHEMISTRY,3.9,3.9,4.1,4.1,Normal,Normal,72-99 DAYS,85,1,72,99,DAYS,,Y
BBC,BBC-10-043,043,10,71,ARM A,1,ARM A,1,Y,Y,Y,Y,09FEB2007,03MAY2007,18DEC2006,-53,,,,Total Protein (g/dL),PROT,14,CHEMISTRY,7.2,7.2,7.4,7.4,Normal,Normal,,,,,,,,
BBC,BBC-10-043,043,10,72,ARM A,1,ARM A,1,Y,Y,Y,Y,09FEB2007,03MAY2007,09FEB2007,1,,Day 1 Baseline,0,Total Protein (g/dL),PROT,14,CHEMISTRY,7.4,7.4,7.4,7.4,Normal,Normal,,,,,,,Y,Y
BBC,BBC-10-043,043,10,73,ARM A,1,ARM A,1,Y,Y,Y,Y,09FEB2007,03MAY2007,23FEB2007,15,,Week 2,2,Total Protein (g/dL),PROT,14,CHEMISTRY,7.1,7.1,7.4,7.4,Normal,Normal,8-22 DAYS,15,0,8,22,DAYS,,Y
BBC,BBC-10-043,043,10,74,ARM A,1,ARM A,1,Y,Y,Y,Y,09FEB2007,03MAY2007,23MAR2007,43,,Week 6,6,Total Protein (g/dL),PROT,14,CHEMISTRY,7.3,7.3,7.4,7.4,Normal,Normal,37-50 DAYS,43,0,37,50,DAYS,,Y
BBC,BBC-10-043,043,10,75,ARM A,1,ARM A,1,Y,Y,Y,Y,09FEB2007,03MAY2007,03MAY2007,84,,Week 12,12,Total Protein (g/dL),PROT,14,CHEMISTRY,7.4,7.4,7.4,7.4,Normal,Normal,72-99 DAYS,85,1,72,99,DAYS,,Y
BBC,BBC-10-043,043,10,61,ARM A,1,ARM A,1,Y,Y,Y,Y,09FEB2007,03MAY2007,18DEC2006,-53,,,,Lipase (U/L),LIPASE,15,CHEMISTRY,19,19,21,21,Normal,Normal,,,,,,,,
BBC,BBC-10-043,043,10,62,ARM A,1,ARM A,1,Y,Y,Y,Y,09FEB2007,03MAY2007,09FEB2007,1,,Day 1 Baseline,0,Lipase (U/L),LIPASE,15,CHEMISTRY,21,21,21,21,Normal,Normal,,,,,,,Y,Y
BBC,BBC-10-043,043,10,63,ARM A,1,ARM A,1,Y,Y,Y,Y,09FEB2007,03MAY2007,23FEB2007,15,,Week 2,2,Lipase (U/L),LIPASE,15,CHEMISTRY,21,21,21,21,Normal,Normal,8-22 DAYS,15,0,8,22,DAYS,,Y
BBC,BBC-10-043,043,10,64,ARM A,1,ARM A,1,Y,Y,Y,Y,09FEB2007,03MAY2007,23MAR2007,43,,Week 6,6,Lipase (U/L),LIPASE,15,CHEMISTRY,18,18,21,21,Normal,Normal,37-50 DAYS,43,0,37,50,DAYS,,Y
BBC,BBC-10-043,043,10,65,ARM A,1,ARM A,1,Y,Y,Y,Y,09FEB2007,03MAY2007,03MAY2007,84,,Week 12,12,Lipase (U/L),LIPASE,15,CHEMISTRY,19,19,21,21,Normal,Normal,72-99 DAYS,85,1,72,99,DAYS,,Y
BBC,BBC-10-043,043,10,36,ARM A,1,ARM A,1,Y,Y,Y,Y,09FEB2007,03MAY2007,18DEC2006,-53,,,,Total Cholesterol (mg/dL),CHOL,16,CHEMISTRY,174,174,166,166,Normal,Normal,,,,,,,,
BBC,BBC-10-043,043,10,37,ARM A,1,ARM A,1,Y,Y,Y,Y,09FEB2007,03MAY2007,09FEB2007,1,,Day 1 Baseline,0,Total Cholesterol (mg/dL),CHOL,16,CHEMISTRY,166,166,166,166,Normal,Normal,,,,,,,Y,Y
BBC,BBC-10-043,043,10,38,ARM A,1,ARM A,1,Y,Y,Y,Y,09FEB2007,03MAY2007,23FEB2007,15,,Week 2,2,Total Cholesterol (mg/dL),CHOL,16,CHEMISTRY,184,184,166,166,Normal,Normal,8-22 DAYS,15,0,8,22,DAYS,,Y
BBC,BBC-10-043,043,10,39,ARM A,1,ARM A,1,Y,Y,Y,Y,09FEB2007,03MAY2007,23MAR2007,43,,Week 6,6,Total Cholesterol (mg/dL),CHOL,16,CHEMISTRY,185,185,166,166,Normal,Normal,37-50 DAYS,43,0,37,50,DAYS,,Y
BBC,BBC-10-043,043,10,40,ARM A,1,ARM A,1,Y,Y,Y,Y,09FEB2007,03MAY2007,03MAY2007,84,,Week 12,12,Total Cholesterol (mg/dL),CHOL,16,CHEMISTRY,198,198,166,166,Normal,Normal,72-99 DAYS,85,1,72,99,DAYS,,Y
BBC,BBC-10-043,043,10,81,ARM A,1,ARM A,1,Y,Y,Y,Y,09FEB2007,03MAY2007,18DEC2006,-53,,,,Triglycerides (mg/dL),TRIG,17,CHEMISTRY,152,152,270,270,Normal,High,,,,,,,,
BBC,BBC-10-043,043,10,82,ARM A,1,ARM A,1,Y,Y,Y,Y,09FEB2007,03MAY2007,09FEB2007,1,,Day 1 Baseline,0,Triglycerides (mg/dL),TRIG,17,CHEMISTRY,270,270,270,270,High,High,,,,,,,Y,Y
BBC,BBC-10-043,043,10,83,ARM A,1,ARM A,1,Y,Y,Y,Y,09FEB2007,03MAY2007,23FEB2007,15,,Week 2,2,Triglycerides (mg/dL),TRIG,17,CHEMISTRY,236,236,270,270,High,High,8-22 DAYS,15,0,8,22,DAYS,,Y
BBC,BBC-10-043,043,10,84,ARM A,1,ARM A,1,Y,Y,Y,Y,09FEB2007,03MAY2007,23MAR2007,43,,Week 6,6,Triglycerides (mg/dL),TRIG,17,CHEMISTRY,233,233,270,270,High,High,37-50 DAYS,43,0,37,50,DAYS,,Y
BBC,BBC-10-043,043,10,85,ARM A,1,ARM A,1,Y,Y,Y,Y,09FEB2007,03MAY2007,03MAY2007,84,,Week 12,12,Triglycerides (mg/dL),TRIG,17,CHEMISTRY,262,262,270,270,High,High,72-99 DAYS,85,1,72,99,DAYS,,Y
BBC,BBC-10-043,043,10,46,ARM A,1,ARM A,1,Y,Y,Y,Y,09FEB2007,03MAY2007,18DEC2006,-53,,,,Creatinine (mg/dL),CREAT,18,CHEMISTRY,0.9,0.9,0.9,0.9,Normal,Normal,,,,,,,,
BBC,BBC-10-043,043,10,47,ARM A,1,ARM A,1,Y,Y,Y,Y,09FEB2007,03MAY2007,09FEB2007,1,,Day 1 Baseline,0,Creatinine (mg/dL),CREAT,18,CHEMISTRY,0.9,0.9,0.9,0.9,Normal,Normal,,,,,,,Y,Y
BBC,BBC-10-043,043,10,48,ARM A,1,ARM A,1,Y,Y,Y,Y,09FEB2007,03MAY2007,23FEB2007,15,,Week 2,2,Creatinine (mg/dL),CREAT,18,CHEMISTRY,0.9,0.9,0.9,0.9,Normal,Normal,8-22 DAYS,15,0,8,22,DAYS,,Y
BBC,BBC-10-043,043,10,49,ARM A,1,ARM A,1,Y,Y,Y,Y,09FEB2007,03MAY2007,23MAR2007,43,,Week 6,6,Creatinine (mg/dL),CREAT,18,CHEMISTRY,0.9,0.9,0.9,0.9,Normal,Normal,37-50 DAYS,43,0,37,50,DAYS,,Y
BBC,BBC-10-043,043,10,50,ARM A,1,ARM A,1,Y,Y,Y,Y,09FEB2007,03MAY2007,03MAY2007,84,,Week 12,12,Creatinine (mg/dL),CREAT,18,CHEMISTRY,0.9,0.9,0.9,0.9,Normal,Normal,72-99 DAYS,85,1,72,99,DAYS,,Y
BBC,BBC-10-043,043,10,143,ARM A,1,ARM A,1,Y,Y,Y,Y,09FEB2007,03MAY2007,18DEC2006,-53,,,,Lymphocytes (10^9/L),LYM,19,HEMATOLOGY,3.4,3.40,2.58,2.58,High,Normal,,,,,,,,
BBC,BBC-10-043,043,10,144,ARM A,1,ARM A,1,Y,Y,Y,Y,09FEB2007,03MAY2007,09FEB2007,1,,Day 1 Baseline,0,Lymphocytes (10^9/L),LYM,19,HEMATOLOGY,2.58,2.58,2.58,2.58,Normal,Normal,,,,,,,Y,Y
BBC,BBC-10-043,043,10,145,ARM A,1,ARM A,1,Y,Y,Y,Y,09FEB2007,03MAY2007,23FEB2007,15,,Week 2,2,Lymphocytes (10^9/L),LYM,19,HEMATOLOGY,2.51,2.51,2.58,2.58,Normal,Normal,8-22 DAYS,15,0,8,22,DAYS,,Y
BBC,BBC-10-043,043,10,146,ARM A,1,ARM A,1,Y,Y,Y,Y,09FEB2007,03MAY2007,23MAR2007,43,,Week 6,6,Lymphocytes (10^9/L),LYM,19,HEMATOLOGY,2.34,2.34,2.58,2.58,Normal,Normal,37-50 DAYS,43,0,37,50,DAYS,,Y
BBC,BBC-10-043,043,10,147,ARM A,1,ARM A,1,Y,Y,Y,Y,09FEB2007,03MAY2007,03MAY2007,84,,Week 12,12,Lymphocytes (10^9/L),LYM,19,HEMATOLOGY,3.21,3.21,2.58,2.58,High,Normal,72-99 DAYS,85,1,72,99,DAYS,,Y
BBC,BBC-10-043,043,10,168,ARM A,1,ARM A,1,Y,Y,Y,Y,09FEB2007,03MAY2007,18DEC2006,-53,,,,Monocytes (10^9/L),MONO,20,HEMATOLOGY,0.87,0.87,0.47,0.47,Normal,Normal,,,,,,,,
BBC,BBC-10-043,043,10,169,ARM A,1,ARM A,1,Y,Y,Y,Y,09FEB2007,03MAY2007,09FEB2007,1,,Day 1 Baseline,0,Monocytes (10^9/L),MONO,20,HEMATOLOGY,0.47,0.47,0.47,0.47,Normal,Normal,,,,,,,Y,Y
BBC,BBC-10-043,043,10,170,ARM A,1,ARM A,1,Y,Y,Y,Y,09FEB2007,03MAY2007,23FEB2007,15,,Week 2,2,Monocytes (10^9/L),MONO,20,HEMATOLOGY,0.42,0.42,0.47,0.47,Normal,Normal,8-22 DAYS,15,0,8,22,DAYS,,Y
BBC,BBC-10-043,043,10,171,ARM A,1,ARM A,1,Y,Y,Y,Y,09FEB2007,03MAY2007,23MAR2007,43,,Week 6,6,Monocytes (10^9/L),MONO,20,HEMATOLOGY,0.45,0.45,0.47,0.47,Normal,Normal,37-50 DAYS,43,0,37,50,DAYS,,Y
BBC,BBC-10-043,043,10,172,ARM A,1,ARM A,1,Y,Y,Y,Y,09FEB2007,03MAY2007,03MAY2007,84,,Week 12,12,Monocytes (10^9/L),MONO,20,HEMATOLOGY,0.61,0.61,0.47,0.47,Normal,Normal,72-99 DAYS,85,1,72,99,DAYS,,Y
BBC,BBC-10-043,043,10,198,ARM A,1,ARM A,1,Y,Y,Y,Y,09FEB2007,03MAY2007,18DEC2006,-53,,,,RBC Distribution Width (%),RDW,21,HEMATOLOGY,12.1,12.1,13.1,13.1,Normal,Normal,,,,,,,,
BBC,BBC-10-043,043,10,199,ARM A,1,ARM A,1,Y,Y,Y,Y,09FEB2007,03MAY2007,09FEB2007,1,,Day 1 Baseline,0,RBC Distribution Width (%),RDW,21,HEMATOLOGY,13.1,13.1,13.1,13.1,Normal,Normal,,,,,,,Y,Y
BBC,BBC-10-043,043,10,200,ARM A,1,ARM A,1,Y,Y,Y,Y,09FEB2007,03MAY2007,23FEB2007,15,,Week 2,2,RBC Distribution Width (%),RDW,21,HEMATOLOGY,13,13.0,13.1,13.1,Normal,Normal,8-22 DAYS,15,0,8,22,DAYS,,Y
BBC,BBC-10-043,043,10,201,ARM A,1,ARM A,1,Y,Y,Y,Y,09FEB2007,03MAY2007,23MAR2007,43,,Week 6,6,RBC Distribution Width (%),RDW,21,HEMATOLOGY,13.2,13.2,13.1,13.1,Normal,Normal,37-50 DAYS,43,0,37,50,DAYS,,Y
BBC,BBC-10-043,043,10,202,ARM A,1,ARM A,1,Y,Y,Y,Y,09FEB2007,03MAY2007,03MAY2007,84,,Week 12,12,RBC Distribution Width (%),RDW,21,HEMATOLOGY,12.3,12.3,13.1,13.1,Normal,Normal,72-99 DAYS,85,1,72,99,DAYS,,Y
BBC,BBC-10-043,043,10,188,ARM A,1,ARM A,1,Y,Y,Y,Y,09FEB2007,03MAY2007,18DEC2006,-53,,,,Platelet Count (10^9/L),PLAT,22,HEMATOLOGY,364,364,351,351,Normal,Normal,,,,,,,,
BBC,BBC-10-043,043,10,189,ARM A,1,ARM A,1,Y,Y,Y,Y,09FEB2007,03MAY2007,09FEB2007,1,,Day 1 Baseline,0,Platelet Count (10^9/L),PLAT,22,HEMATOLOGY,351,351,351,351,Normal,Normal,,,,,,,Y,Y
BBC,BBC-10-043,043,10,190,ARM A,1,ARM A,1,Y,Y,Y,Y,09FEB2007,03MAY2007,23FEB2007,15,,Week 2,2,Platelet Count (10^9/L),PLAT,22,HEMATOLOGY,329,329,351,351,Normal,Normal,8-22 DAYS,15,0,8,22,DAYS,,Y
BBC,BBC-10-043,043,10,191,ARM A,1,ARM A,1,Y,Y,Y,Y,09FEB2007,03MAY2007,23MAR2007,43,,Week 6,6,Platelet Count (10^9/L),PLAT,22,HEMATOLOGY,346,346,351,351,Normal,Normal,37-50 DAYS,43,0,37,50,DAYS,,Y
BBC,BBC-10-043,043,10,192,ARM A,1,ARM A,1,Y,Y,Y,Y,09FEB2007,03MAY2007,03MAY2007,84,,Week 12,12,Platelet Count (10^9/L),PLAT,22,HEMATOLOGY,351,351,351,351,Normal,Normal,72-99 DAYS,85,1,72,99,DAYS,,Y
BBC,BBC-10-043,043,10,178,ARM A,1,ARM A,1,Y,Y,Y,Y,09FEB2007,03MAY2007,18DEC2006,-53,,,,Neutrophils (10^9/L),NEUT,23,HEMATOLOGY,6.66,6.66,3.04,3.04,Normal,Normal,,,,,,,,
BBC,BBC-10-043,043,10,179,ARM A,1,ARM A,1,Y,Y,Y,Y,09FEB2007,03MAY2007,09FEB2007,1,,Day 1 Baseline,0,Neutrophils (10^9/L),NEUT,23,HEMATOLOGY,3.04,3.04,3.04,3.04,Normal,Normal,,,,,,,Y,Y
BBC,BBC-10-043,043,10,180,ARM A,1,ARM A,1,Y,Y,Y,Y,09FEB2007,03MAY2007,23FEB2007,15,,Week 2,2,Neutrophils (10^9/L),NEUT,23,HEMATOLOGY,4.65,4.65,3.04,3.04,Normal,Normal,8-22 DAYS,15,0,8,22,DAYS,,Y
BBC,BBC-10-043,043,10,181,ARM A,1,ARM A,1,Y,Y,Y,Y,09FEB2007,03MAY2007,23MAR2007,43,,Week 6,6,Neutrophils (10^9/L),NEUT,23,HEMATOLOGY,3.9,3.90,3.04,3.04,Normal,Normal,37-50 DAYS,43,0,37,50,DAYS,,Y
BBC,BBC-10-043,043,10,182,ARM A,1,ARM A,1,Y,Y,Y,Y,09FEB2007,03MAY2007,03MAY2007,84,,Week 12,12,Neutrophils (10^9/L),NEUT,23,HEMATOLOGY,5.22,5.22,3.04,3.04,Normal,Normal,72-99 DAYS,85,1,72,99,DAYS,,Y
BBC,BBC-10-043,043,10,123,ARM A,1,ARM A,1,Y,Y,Y,Y,09FEB2007,03MAY2007,18DEC2006,-53,,,,Eosinophils (10^9/L),EOS,24,HEMATOLOGY,0.53,0.53,0.55,0.55,High,High,,,,,,,,
BBC,BBC-10-043,043,10,124,ARM A,1,ARM A,1,Y,Y,Y,Y,09FEB2007,03MAY2007,09FEB2007,1,,Day 1 Baseline,0,Eosinophils (10^9/L),EOS,24,HEMATOLOGY,0.55,0.55,0.55,0.55,High,High,,,,,,,Y,Y
BBC,BBC-10-043,043,10,125,ARM A,1,ARM A,1,Y,Y,Y,Y,09FEB2007,03MAY2007,23FEB2007,15,,Week 2,2,Eosinophils (10^9/L),EOS,24,HEMATOLOGY,0.51,0.51,0.55,0.55,High,High,8-22 DAYS,15,0,8,22,DAYS,,Y
BBC,BBC-10-043,043,10,126,ARM A,1,ARM A,1,Y,Y,Y,Y,09FEB2007,03MAY2007,23MAR2007,43,,Week 6,6,Eosinophils (10^9/L),EOS,24,HEMATOLOGY,0.36,0.36,0.55,0.55,Normal,High,37-50 DAYS,43,0,37,50,DAYS,,Y
BBC,BBC-10-043,043,10,127,ARM A,1,ARM A,1,Y,Y,Y,Y,09FEB2007,03MAY2007,03MAY2007,84,,Week 12,12,Eosinophils (10^9/L),EOS,24,HEMATOLOGY,0.59,0.59,0.55,0.55,High,High,72-99 DAYS,85,1,72,99,DAYS,,Y
BBC,BBC-10-043,043,10,113,ARM A,1,ARM A,1,Y,Y,Y,Y,09FEB2007,03MAY2007,18DEC2006,-53,,,,Basophils (10^9/L),BASO,25,HEMATOLOGY,0.06,0.06,0.02,0.02,Normal,Normal,,,,,,,,
BBC,BBC-10-043,043,10,114,ARM A,1,ARM A,1,Y,Y,Y,Y,09FEB2007,03MAY2007,09FEB2007,1,,Day 1 Baseline,0,Basophils (10^9/L),BASO,25,HEMATOLOGY,0.02,0.02,0.02,0.02,Normal,Normal,,,,,,,Y,Y
BBC,BBC-10-043,043,10,115,ARM A,1,ARM A,1,Y,Y,Y,Y,09FEB2007,03MAY2007,23FEB2007,15,,Week 2,2,Basophils (10^9/L),BASO,25,HEMATOLOGY,0.03,0.03,0.02,0.02,Normal,Normal,8-22 DAYS,15,0,8,22,DAYS,,Y
BBC,BBC-10-043,043,10,116,ARM A,1,ARM A,1,Y,Y,Y,Y,09FEB2007,03MAY2007,23MAR2007,43,,Week 6,6,Basophils (10^9/L),BASO,25,HEMATOLOGY,0.04,0.04,0.02,0.02,Normal,Normal,37-50 DAYS,43,0,37,50,DAYS,,Y
BBC,BBC-10-043,043,10,117,ARM A,1,ARM A,1,Y,Y,Y,Y,09FEB2007,03MAY2007,03MAY2007,84,,Week 12,12,Basophils (10^9/L),BASO,25,HEMATOLOGY,0.05,0.05,0.02,0.02,Normal,Normal,72-99 DAYS,85,1,72,99,DAYS,,Y
BBC,BBC-10-043,043,10,203,ARM A,1,ARM A,1,Y,Y,Y,Y,09FEB2007,03MAY2007,18DEC2006,-53,,,,Leukocytes (10^9/L),WBC,26,HEMATOLOGY,11.5,11.5,6.7,6.7,High,Normal,,,,,,,,
BBC,BBC-10-043,043,10,204,ARM A,1,ARM A,1,Y,Y,Y,Y,09FEB2007,03MAY2007,09FEB2007,1,,Day 1 Baseline,0,Leukocytes (10^9/L),WBC,26,HEMATOLOGY,6.7,6.7,6.7,6.7,Normal,Normal,,,,,,,Y,Y
BBC,BBC-10-043,043,10,205,ARM A,1,ARM A,1,Y,Y,Y,Y,09FEB2007,03MAY2007,23FEB2007,15,,Week 2,2,Leukocytes (10^9/L),WBC,26,HEMATOLOGY,8.1,8.1,6.7,6.7,Normal,Normal,8-22 DAYS,15,0,8,22,DAYS,,Y
BBC,BBC-10-043,043,10,206,ARM A,1,ARM A,1,Y,Y,Y,Y,09FEB2007,03MAY2007,23MAR2007,43,,Week 6,6,Leukocytes (10^9/L),WBC,26,HEMATOLOGY,7.1,7.1,6.7,6.7,Normal,Normal,37-50 DAYS,43,0,37,50,DAYS,,Y
BBC,BBC-10-043,043,10,207,ARM A,1,ARM A,1,Y,Y,Y,Y,09FEB2007,03MAY2007,03MAY2007,84,,Week 12,12,Leukocytes (10^9/L),WBC,26,HEMATOLOGY,9.7,9.7,6.7,6.7,Normal,Normal,72-99 DAYS,85,1,72,99,DAYS,,Y
BBC,BBC-10-043,043,10,193,ARM A,1,ARM A,1,Y,Y,Y,Y,09FEB2007,03MAY2007,18DEC2006,-53,,,,Erythrocytes (10^12/L),RBC,27,HEMATOLOGY,4.24,4.24,4.21,4.21,Normal,Normal,,,,,,,,
BBC,BBC-10-043,043,10,194,ARM A,1,ARM A,1,Y,Y,Y,Y,09FEB2007,03MAY2007,09FEB2007,1,,Day 1 Baseline,0,Erythrocytes (10^12/L),RBC,27,HEMATOLOGY,4.21,4.21,4.21,4.21,Normal,Normal,,,,,,,Y,Y
BBC,BBC-10-043,043,10,195,ARM A,1,ARM A,1,Y,Y,Y,Y,09FEB2007,03MAY2007,23FEB2007,15,,Week 2,2,Erythrocytes (10^12/L),RBC,27,HEMATOLOGY,4.14,4.14,4.21,4.21,Normal,Normal,8-22 DAYS,15,0,8,22,DAYS,,Y
BBC,BBC-10-043,043,10,196,ARM A,1,ARM A,1,Y,Y,Y,Y,09FEB2007,03MAY2007,23MAR2007,43,,Week 6,6,Erythrocytes (10^12/L),RBC,27,HEMATOLOGY,4.11,4.11,4.21,4.21,Normal,Normal,37-50 DAYS,43,0,37,50,DAYS,,Y
BBC,BBC-10-043,043,10,197,ARM A,1,ARM A,1,Y,Y,Y,Y,09FEB2007,03MAY2007,03MAY2007,84,,Week 12,12,Erythrocytes (10^12/L),RBC,27,HEMATOLOGY,4.24,4.24,4.21,4.21,Normal,Normal,72-99 DAYS,85,1,72,99,DAYS,,Y
BBC,BBC-10-043,043,10,138,ARM A,1,ARM A,1,Y,Y,Y,Y,09FEB2007,03MAY2007,18DEC2006,-53,,,,Hemoglobin (g/dL),HGB,28,HEMATOLOGY,12.9,12.9,12.5,12.5,Normal,Normal,,,,,,,,
BBC,BBC-10-043,043,10,139,ARM A,1,ARM A,1,Y,Y,Y,Y,09FEB2007,03MAY2007,09FEB2007,1,,Day 1 Baseline,0,Hemoglobin (g/dL),HGB,28,HEMATOLOGY,12.5,12.5,12.5,12.5,Normal,Normal,,,,,,,Y,Y
BBC,BBC-10-043,043,10,140,ARM A,1,ARM A,1,Y,Y,Y,Y,09FEB2007,03MAY2007,23FEB2007,15,,Week 2,2,Hemoglobin (g/dL),HGB,28,HEMATOLOGY,12.7,12.7,12.5,12.5,Normal,Normal,8-22 DAYS,15,0,8,22,DAYS,,Y
BBC,BBC-10-043,043,10,141,ARM A,1,ARM A,1,Y,Y,Y,Y,09FEB2007,03MAY2007,23MAR2007,43,,Week 6,6,Hemoglobin (g/dL),HGB,28,HEMATOLOGY,12.5,12.5,12.5,12.5,Normal,Normal,37-50 DAYS,43,0,37,50,DAYS,,Y
BBC,BBC-10-043,043,10,142,ARM A,1,ARM A,1,Y,Y,Y,Y,09FEB2007,03MAY2007,03MAY2007,84,,Week 12,12,Hemoglobin (g/dL),HGB,28,HEMATOLOGY,12.9,12.9,12.5,12.5,Normal,Normal,72-99 DAYS,85,1,72,99,DAYS,,Y
BBC,BBC-10-043,043,10,133,ARM A,1,ARM A,1,Y,Y,Y,Y,09FEB2007,03MAY2007,18DEC2006,-53,,,,Hematocrit (%),HCT,29,HEMATOLOGY,37,37.0,36.4,36.4,Normal,Normal,,,,,,,,
BBC,BBC-10-043,043,10,134,ARM A,1,ARM A,1,Y,Y,Y,Y,09FEB2007,03MAY2007,09FEB2007,1,,Day 1 Baseline,0,Hematocrit (%),HCT,29,HEMATOLOGY,36.4,36.4,36.4,36.4,Normal,Normal,,,,,,,Y,Y
BBC,BBC-10-043,043,10,135,ARM A,1,ARM A,1,Y,Y,Y,Y,09FEB2007,03MAY2007,23FEB2007,15,,Week 2,2,Hematocrit (%),HCT,29,HEMATOLOGY,36.6,36.6,36.4,36.4,Normal,Normal,8-22 DAYS,15,0,8,22,DAYS,,Y
BBC,BBC-10-043,043,10,136,ARM A,1,ARM A,1,Y,Y,Y,Y,09FEB2007,03MAY2007,23MAR2007,43,,Week 6,6,Hematocrit (%),HCT,29,HEMATOLOGY,36.4,36.4,36.4,36.4,Normal,Normal,37-50 DAYS,43,0,37,50,DAYS,,Y
BBC,BBC-10-043,043,10,137,ARM A,1,ARM A,1,Y,Y,Y,Y,09FEB2007,03MAY2007,03MAY2007,84,,Week 12,12,Hematocrit (%),HCT,29,HEMATOLOGY,36.9,36.9,36.4,36.4,Normal,Normal,72-99 DAYS,85,1,72,99,DAYS,,Y
BBC,BBC-10-043,043,10,163,ARM A,1,ARM A,1,Y,Y,Y,Y,09FEB2007,03MAY2007,18DEC2006,-53,,,,Ery. Mean Corpuscular Volume (fL),MCV,30,HEMATOLOGY,87.2,87.2,86.4,86.4,Normal,Normal,,,,,,,,
BBC,BBC-10-043,043,10,164,ARM A,1,ARM A,1,Y,Y,Y,Y,09FEB2007,03MAY2007,09FEB2007,1,,Day 1 Baseline,0,Ery. Mean Corpuscular Volume (fL),MCV,30,HEMATOLOGY,86.4,86.4,86.4,86.4,Normal,Normal,,,,,,,Y,Y
BBC,BBC-10-043,043,10,165,ARM A,1,ARM A,1,Y,Y,Y,Y,09FEB2007,03MAY2007,23FEB2007,15,,Week 2,2,Ery. Mean Corpuscular Volume (fL),MCV,30,HEMATOLOGY,88.4,88.4,86.4,86.4,Normal,Normal,8-22 DAYS,15,0,8,22,DAYS,,Y
BBC,BBC-10-043,043,10,166,ARM A,1,ARM A,1,Y,Y,Y,Y,09FEB2007,03MAY2007,23MAR2007,43,,Week 6,6,Ery. Mean Corpuscular Volume (fL),MCV,30,HEMATOLOGY,88.7,88.7,86.4,86.4,Normal,Normal,37-50 DAYS,43,0,37,50,DAYS,,Y
BBC,BBC-10-043,043,10,167,ARM A,1,ARM A,1,Y,Y,Y,Y,09FEB2007,03MAY2007,03MAY2007,84,,Week 12,12,Ery. Mean Corpuscular Volume (fL),MCV,30,HEMATOLOGY,87.2,87.2,86.4,86.4,Normal,Normal,72-99 DAYS,85,1,72,99,DAYS,,Y
BBC,BBC-10-043,043,10,153,ARM A,1,ARM A,1,Y,Y,Y,Y,09FEB2007,03MAY2007,18DEC2006,-53,,,,Ery. Mean Corpuscular Hemoglobin (pg),MCH,31,HEMATOLOGY,30.3,30.3,29.8,29.8,Normal,Normal,,,,,,,,
BBC,BBC-10-043,043,10,154,ARM A,1,ARM A,1,Y,Y,Y,Y,09FEB2007,03MAY2007,09FEB2007,1,,Day 1 Baseline,0,Ery. Mean Corpuscular Hemoglobin (pg),MCH,31,HEMATOLOGY,29.8,29.8,29.8,29.8,Normal,Normal,,,,,,,Y,Y
BBC,BBC-10-043,043,10,155,ARM A,1,ARM A,1,Y,Y,Y,Y,09FEB2007,03MAY2007,23FEB2007,15,,Week 2,2,Ery. Mean Corpuscular Hemoglobin (pg),MCH,31,HEMATOLOGY,30.8,30.8,29.8,29.8,Normal,Normal,8-22 DAYS,15,0,8,22,DAYS,,Y
BBC,BBC-10-043,043,10,156,ARM A,1,ARM A,1,Y,Y,Y,Y,09FEB2007,03MAY2007,23MAR2007,43,,Week 6,6,Ery. Mean Corpuscular Hemoglobin (pg),MCH,31,HEMATOLOGY,30.5,30.5,29.8,29.8,Normal,Normal,37-50 DAYS,43,0,37,50,DAYS,,Y
BBC,BBC-10-043,043,10,157,ARM A,1,ARM A,1,Y,Y,Y,Y,09FEB2007,03MAY2007,03MAY2007,84,,Week 12,12,Ery. Mean Corpuscular Hemoglobin (pg),MCH,31,HEMATOLOGY,30.5,30.5,29.8,29.8,Normal,Normal,72-99 DAYS,85,1,72,99,DAYS,,Y
BBC,BBC-10-043,043,10,158,ARM A,1,ARM A,1,Y,Y,Y,Y,09FEB2007,03MAY2007,18DEC2006,-53,,,,Ery. Mean Corpuscular HGB Concentration (g/dL),MCHC,32,HEMATOLOGY,34.8,34.8,34.5,34.5,High,High,,,,,,,,
BBC,BBC-10-043,043,10,159,ARM A,1,ARM A,1,Y,Y,Y,Y,09FEB2007,03MAY2007,09FEB2007,1,,Day 1 Baseline,0,Ery. Mean Corpuscular HGB Concentration (g/dL),MCHC,32,HEMATOLOGY,34.5,34.5,34.5,34.5,High,High,,,,,,,Y,Y
BBC,BBC-10-043,043,10,160,ARM A,1,ARM A,1,Y,Y,Y,Y,09FEB2007,03MAY2007,23FEB2007,15,,Week 2,2,Ery. Mean Corpuscular HGB Concentration (g/dL),MCHC,32,HEMATOLOGY,34.8,34.8,34.5,34.5,High,High,8-22 DAYS,15,0,8,22,DAYS,,Y
BBC,BBC-10-043,043,10,161,ARM A,1,ARM A,1,Y,Y,Y,Y,09FEB2007,03MAY2007,23MAR2007,43,,Week 6,6,Ery. Mean Corpuscular HGB Concentration (g/dL),MCHC,32,HEMATOLOGY,34.4,34.4,34.5,34.5,Normal,High,37-50 DAYS,43,0,37,50,DAYS,,Y
BBC,BBC-10-043,043,10,162,ARM A,1,ARM A,1,Y,Y,Y,Y,09FEB2007,03MAY2007,03MAY2007,84,,Week 12,12,Ery. Mean Corpuscular HGB Concentration (g/dL),MCHC,32,HEMATOLOGY,35,35.0,34.5,34.5,High,High,72-99 DAYS,85,1,72,99,DAYS,,Y
BBC,BBC-10-043,043,10,225,ARM A,1,ARM A,1,Y,Y,Y,Y,09FEB2007,03MAY2007,18DEC2006,-53,,,,Creatinine (mg/dL),CREACONC,33,URINALYSIS,77,77,138,138,,,,,,,,,,
BBC,BBC-10-043,043,10,226,ARM A,1,ARM A,1,Y,Y,Y,Y,09FEB2007,03MAY2007,09FEB2007,1,,Day 1 Baseline,0,Creatinine (mg/dL),CREACONC,33,URINALYSIS,138,138,138,138,,,,,,,,,Y,Y
BBC,BBC-10-043,043,10,227,ARM A,1,ARM A,1,Y,Y,Y,Y,09FEB2007,03MAY2007,23FEB2007,15,,Week 2,2,Creatinine (mg/dL),CREACONC,33,URINALYSIS,122,122,138,138,,,8-22 DAYS,15,0,8,22,DAYS,,Y
BBC,BBC-10-043,043,10,228,ARM A,1,ARM A,1,Y,Y,Y,Y,09FEB2007,03MAY2007,23MAR2007,43,,Week 6,6,Creatinine (mg/dL),CREACONC,33,URINALYSIS,67,67,138,138,,,37-50 DAYS,43,0,37,50,DAYS,,Y
BBC,BBC-10-043,043,10,229,ARM A,1,ARM A,1,Y,Y,Y,Y,09FEB2007,03MAY2007,03MAY2007,84,,Week 12,12,Creatinine (mg/dL),CREACONC,33,URINALYSIS,108,108,138,138,,,72-99 DAYS,85,1,72,99,DAYS,,Y
BBC,BBC-10-043,043,10,215,ARM A,1,ARM A,1,Y,Y,Y,Y,09FEB2007,03MAY2007,18DEC2006,-53,,,,Calcium (mg/L),CACONC,34,URINALYSIS,215,215.000000,154,154.000000,,,,,,,,,,
BBC,BBC-10-043,043,10,216,ARM A,1,ARM A,1,Y,Y,Y,Y,09FEB2007,03MAY2007,09FEB2007,1,,Day 1 Baseline,0,Calcium (mg/L),CACONC,34,URINALYSIS,154,154.000000,154,154.000000,,,,,,,,,Y,Y
BBC,BBC-10-043,043,10,217,ARM A,1,ARM A,1,Y,Y,Y,Y,09FEB2007,03MAY2007,23FEB2007,15,,Week 2,2,Calcium (mg/L),CACONC,34,URINALYSIS,220,220.000000,154,154.000000,,,8-22 DAYS,15,0,8,22,DAYS,,Y
BBC,BBC-10-043,043,10,218,ARM A,1,ARM A,1,Y,Y,Y,Y,09FEB2007,03MAY2007,23MAR2007,43,,Week 6,6,Calcium (mg/L),CACONC,34,URINALYSIS,153,153.000000,154,154.000000,,,37-50 DAYS,43,0,37,50,DAYS,,Y
BBC,BBC-10-043,043,10,219,ARM A,1,ARM A,1,Y,Y,Y,Y,09FEB2007,03MAY2007,03MAY2007,84,,Week 12,12,Calcium (mg/L),CACONC,34,URINALYSIS,100,100.000000,154,154.000000,,,72-99 DAYS,85,1,72,99,DAYS,,Y
BBC,BBC-10-043,043,10,220,ARM A,1,ARM A,1,Y,Y,Y,Y,09FEB2007,03MAY2007,18DEC2006,-53,,,,Calcium/Creatinine Ratio,CACREAT,35,URINALYSIS,0.28,0.28,0.11,0.11,,,,,,,,,,
BBC,BBC-10-043,043,10,221,ARM A,1,ARM A,1,Y,Y,Y,Y,09FEB2007,03MAY2007,09FEB2007,1,,Day 1 Baseline,0,Calcium/Creatinine Ratio,CACREAT,35,URINALYSIS,0.11,0.11,0.11,0.11,,,,,,,,,Y,Y
BBC,BBC-10-043,043,10,222,ARM A,1,ARM A,1,Y,Y,Y,Y,09FEB2007,03MAY2007,23FEB2007,15,,Week 2,2,Calcium/Creatinine Ratio,CACREAT,35,URINALYSIS,0.18,0.18,0.11,0.11,,,8-22 DAYS,15,0,8,22,DAYS,,Y
BBC,BBC-10-043,043,10,223,ARM A,1,ARM A,1,Y,Y,Y,Y,09FEB2007,03MAY2007,23MAR2007,43,,Week 6,6,Calcium/Creatinine Ratio,CACREAT,35,URINALYSIS,0.23,0.23,0.11,0.11,,,37-50 DAYS,43,0,37,50,DAYS,,Y
BBC,BBC-10-043,043,10,224,ARM A,1,ARM A,1,Y,Y,Y,Y,09FEB2007,03MAY2007,03MAY2007,84,,Week 12,12,Calcium/Creatinine Ratio,CACREAT,35,URINALYSIS,0.09,0.09,0.11,0.11,,,72-99 DAYS,85,1,72,99,DAYS,,Y
BBC,BBC-10-043,043,10,267,ARM A,1,ARM A,1,Y,Y,Y,Y,09FEB2007,03MAY2007,18DEC2006,-53,,,,Phosphate Concentration (mg/dL),PHOSCONC,36,URINALYSIS,14,14.0,37,37.0,,,,,,,,,,
BBC,BBC-10-043,043,10,268,ARM A,1,ARM A,1,Y,Y,Y,Y,09FEB2007,03MAY2007,09FEB2007,1,,Day 1 Baseline,0,Phosphate Concentration (mg/dL),PHOSCONC,36,URINALYSIS,37,37.0,37,37.0,,,,,,,,,Y,Y
BBC,BBC-10-043,043,10,269,ARM A,1,ARM A,1,Y,Y,Y,Y,09FEB2007,03MAY2007,23FEB2007,15,,Week 2,2,Phosphate Concentration (mg/dL),PHOSCONC,36,URINALYSIS,65,65.0,37,37.0,,,8-22 DAYS,15,0,8,22,DAYS,,Y
BBC,BBC-10-043,043,10,270,ARM A,1,ARM A,1,Y,Y,Y,Y,09FEB2007,03MAY2007,23MAR2007,43,,Week 6,6,Phosphate Concentration (mg/dL),PHOSCONC,36,URINALYSIS,27,27.0,37,37.0,,,37-50 DAYS,43,0,37,50,DAYS,,Y
BBC,BBC-10-043,043,10,271,ARM A,1,ARM A,1,Y,Y,Y,Y,09FEB2007,03MAY2007,03MAY2007,84,,Week 12,12,Phosphate Concentration (mg/dL),PHOSCONC,36,URINALYSIS,32,32.0,37,37.0,,,72-99 DAYS,85,1,72,99,DAYS,,Y
BBC,BBC-10-043,043,10,96,ARM A,1,ARM A,1,Y,Y,Y,Y,09FEB2007,03MAY2007,09FEB2007,1,,Day 1 Baseline,0,"Parathyroid Hormone, PTH (pmol/L)",PTHI,37,ENDOCRINE,2.3,2.3,2.3,2.3,Normal,Normal,,,,,,,Y,Y
BBC,BBC-10-043,043,10,98,ARM A,1,ARM A,1,Y,Y,Y,Y,09FEB2007,03MAY2007,23MAR2007,43,,Week 6,6,"Parathyroid Hormone, PTH (pmol/L)",PTHI,37,ENDOCRINE,2.2,2.2,2.3,2.3,Normal,Normal,37-50 DAYS,43,0,37,50,DAYS,,Y
BBC,BBC-10-043,043,10,110,ARM A,1,ARM A,1,Y,Y,Y,Y,09FEB2007,03MAY2007,09FEB2007,1,,Day 1 Baseline,0,25-Hydroxyvitamin D3 (ug/L),VITDIT3,38,ENDOCRINE,28,28.0,28,28.0,,,,,,,,,Y,Y
BBC,BBC-10-043,043,10,111,ARM A,1,ARM A,1,Y,Y,Y,Y,09FEB2007,03MAY2007,23MAR2007,43,,Week 6,6,25-Hydroxyvitamin D3 (ug/L),VITDIT3,38,ENDOCRINE,38,38.0,28,28.0,,,37-50 DAYS,43,0,37,50,DAYS,,Y
BBC,BBC-10-043,043,10,112,ARM A,1,ARM A,1,Y,Y,Y,Y,09FEB2007,03MAY2007,03MAY2007,84,,Week 12,12,25-Hydroxyvitamin D3 (ug/L),VITDIT3,38,ENDOCRINE,43,43.0,28,28.0,,,72-99 DAYS,85,1,72,99,DAYS,,Y
BBC,BBC-10-043,043,10,92,ARM A,1,ARM A,1,Y,Y,Y,Y,09FEB2007,03MAY2007,09FEB2007,1,,Day 1 Baseline,0,Osteocalcin (ug/L),OSTEOC,39,ENDOCRINE,22.8,22.8,22.8,22.8,,,,,,,,,Y,Y
BBC,BBC-10-043,043,10,93,ARM A,1,ARM A,1,Y,Y,Y,Y,09FEB2007,03MAY2007,23MAR2007,43,,Week 6,6,Osteocalcin (ug/L),OSTEOC,39,ENDOCRINE,20.9,20.9,22.8,22.8,,,37-50 DAYS,43,0,37,50,DAYS,,Y
BBC,BBC-10-043,043,10,101,ARM A,1,ARM A,1,Y,Y,Y,Y,09FEB2007,03MAY2007,09FEB2007,1,,Day 1 Baseline,0,"1, 25-Dihydroxyvitamin D (pmol/L)",VITDAT,40,ENDOCRINE,5.46,5.46,5.46,5.46,Normal,Normal,,,,,,,Y,Y
BBC,BBC-10-043,043,10,102,ARM A,1,ARM A,1,Y,Y,Y,Y,09FEB2007,03MAY2007,23MAR2007,43,,Week 6,6,"1, 25-Dihydroxyvitamin D (pmol/L)",VITDAT,40,ENDOCRINE,6.3,6.30,5.46,5.46,Normal,Normal,37-50 DAYS,43,0,37,50,DAYS,,Y
BBC,BBC-10-043,043,10,103,ARM A,1,ARM A,1,Y,Y,Y,Y,09FEB2007,03MAY2007,03MAY2007,84,,Week 12,12,"1, 25-Dihydroxyvitamin D (pmol/L)",VITDAT,40,ENDOCRINE,7.25,7.25,5.46,5.46,High,Normal,72-99 DAYS,85,1,72,99,DAYS,,Y
BBC,BBC-10-145,145,10,31,ARM A,1,ARM A,1,Y,Y,Y,N,08DEC2006,30MAR2007,01DEC2006,-7,,,,Total Calcium (mg/dL),CA,1,CHEMISTRY,9.6,9.6,9.6,9.6,Normal,Normal,,,,,,,,
BBC,BBC-10-145,145,10,35,ARM A,1,ARM A,1,Y,Y,Y,N,08DEC2006,30MAR2007,30MAR2007,113,,,,Total Calcium (mg/dL),CA,1,CHEMISTRY,9.4,9.4,9.6,9.6,Normal,Normal,,,,,,,,
BBC,BBC-10-145,145,10,32,ARM A,1,ARM A,1,Y,Y,Y,N,08DEC2006,30MAR2007,08DEC2006,1,,Day 1 Baseline,0,Total Calcium (mg/dL),CA,1,CHEMISTRY,9.6,9.6,9.6,9.6,Normal,Normal,,,,,,,Y,Y
BBC,BBC-10-145,145,10,33,ARM A,1,ARM A,1,Y,Y,Y,N,08DEC2006,30MAR2007,20DEC2006,13,,Week 2,2,Total Calcium (mg/dL),CA,1,CHEMISTRY,9.1,9.1,9.6,9.6,Normal,Normal,8-22 DAYS,15,2,8,22,DAYS,,Y
BBC,BBC-10-145,145,10,34,ARM A,1,ARM A,1,Y,Y,Y,N,08DEC2006,30MAR2007,23JAN2007,47,,Week 6,6,Total Calcium (mg/dL),CA,1,CHEMISTRY,9.4,9.4,9.6,9.6,Normal,Normal,37-50 DAYS,43,4,37,50,DAYS,,Y
BBC,BBC-10-145,145,10,56,ARM A,1,ARM A,1,Y,Y,Y,N,08DEC2006,30MAR2007,01DEC2006,-7,,,,Potassium (mmol/L),K,2,CHEMISTRY,4.4,4.4,3.8,3.8,Normal,Normal,,,,,,,,
BBC,BBC-10-145,145,10,60,ARM A,1,ARM A,1,Y,Y,Y,N,08DEC2006,30MAR2007,30MAR2007,113,,,,Potassium (mmol/L),K,2,CHEMISTRY,4.1,4.1,3.8,3.8,Normal,Normal,,,,,,,,
BBC,BBC-10-145,145,10,57,ARM A,1,ARM A,1,Y,Y,Y,N,08DEC2006,30MAR2007,08DEC2006,1,,Day 1 Baseline,0,Potassium (mmol/L),K,2,CHEMISTRY,3.8,3.8,3.8,3.8,Normal,Normal,,,,,,,Y,Y
BBC,BBC-10-145,145,10,58,ARM A,1,ARM A,1,Y,Y,Y,N,08DEC2006,30MAR2007,20DEC2006,13,,Week 2,2,Potassium (mmol/L),K,2,CHEMISTRY,3.9,3.9,3.8,3.8,Normal,Normal,8-22 DAYS,15,2,8,22,DAYS,,Y
BBC,BBC-10-145,145,10,59,ARM A,1,ARM A,1,Y,Y,Y,N,08DEC2006,30MAR2007,23JAN2007,47,,Week 6,6,Potassium (mmol/L),K,2,CHEMISTRY,4.1,4.1,3.8,3.8,Normal,Normal,37-50 DAYS,43,4,37,50,DAYS,,Y
BBC,BBC-10-145,145,10,41,ARM A,1,ARM A,1,Y,Y,Y,N,08DEC2006,30MAR2007,01DEC2006,-7,,,,Chloride (mmol/L),CL,3,CHEMISTRY,105,105,103,103,Normal,Normal,,,,,,,,
BBC,BBC-10-145,145,10,45,ARM A,1,ARM A,1,Y,Y,Y,N,08DEC2006,30MAR2007,30MAR2007,113,,,,Chloride (mmol/L),CL,3,CHEMISTRY,103,103,103,103,Normal,Normal,,,,,,,,
BBC,BBC-10-145,145,10,42,ARM A,1,ARM A,1,Y,Y,Y,N,08DEC2006,30MAR2007,08DEC2006,1,,Day 1 Baseline,0,Chloride (mmol/L),CL,3,CHEMISTRY,103,103,103,103,Normal,Normal,,,,,,,Y,Y
BBC,BBC-10-145,145,10,43,ARM A,1,ARM A,1,Y,Y,Y,N,08DEC2006,30MAR2007,20DEC2006,13,,Week 2,2,Chloride (mmol/L),CL,3,CHEMISTRY,105,105,103,103,Normal,Normal,8-22 DAYS,15,2,8,22,DAYS,,Y
BBC,BBC-10-145,145,10,44,ARM A,1,ARM A,1,Y,Y,Y,N,08DEC2006,30MAR2007,23JAN2007,47,,Week 6,6,Chloride (mmol/L),CL,3,CHEMISTRY,106,106,103,103,Normal,Normal,37-50 DAYS,43,4,37,50,DAYS,,Y
BBC,BBC-10-145,145,10,21,ARM A,1,ARM A,1,Y,Y,Y,N,08DEC2006,30MAR2007,01DEC2006,-7,,,,Total Bilirubin (mg/dL),BILI,4,CHEMISTRY,0.4,0.4,0.4,0.4,Normal,Normal,,,,,,,,
BBC,BBC-10-145,145,10,25,ARM A,1,ARM A,1,Y,Y,Y,N,08DEC2006,30MAR2007,30MAR2007,113,,,,Total Bilirubin (mg/dL),BILI,4,CHEMISTRY,0.3,0.3,0.4,0.4,Normal,Normal,,,,,,,,
BBC,BBC-10-145,145,10,22,ARM A,1,ARM A,1,Y,Y,Y,N,08DEC2006,30MAR2007,08DEC2006,1,,Day 1 Baseline,0,Total Bilirubin (mg/dL),BILI,4,CHEMISTRY,0.4,0.4,0.4,0.4,Normal,Normal,,,,,,,Y,Y
BBC,BBC-10-145,145,10,23,ARM A,1,ARM A,1,Y,Y,Y,N,08DEC2006,30MAR2007,20DEC2006,13,,Week 2,2,Total Bilirubin (mg/dL),BILI,4,CHEMISTRY,0.2,0.2,0.4,0.4,Normal,Normal,8-22 DAYS,15,2,8,22,DAYS,,Y
BBC,BBC-10-145,145,10,24,ARM A,1,ARM A,1,Y,Y,Y,N,08DEC2006,30MAR2007,23JAN2007,47,,Week 6,6,Total Bilirubin (mg/dL),BILI,4,CHEMISTRY,0.3,0.3,0.4,0.4,Normal,Normal,37-50 DAYS,43,4,37,50,DAYS,,Y
BBC,BBC-10-145,145,10,76,ARM A,1,ARM A,1,Y,Y,Y,N,08DEC2006,30MAR2007,01DEC2006,-7,,,,Sodium (mmol/L),SODIUM,5,CHEMISTRY,140,140,138,138,Normal,Normal,,,,,,,,
BBC,BBC-10-145,145,10,80,ARM A,1,ARM A,1,Y,Y,Y,N,08DEC2006,30MAR2007,30MAR2007,113,,,,Sodium (mmol/L),SODIUM,5,CHEMISTRY,139,139,138,138,Normal,Normal,,,,,,,,
BBC,BBC-10-145,145,10,77,ARM A,1,ARM A,1,Y,Y,Y,N,08DEC2006,30MAR2007,08DEC2006,1,,Day 1 Baseline,0,Sodium (mmol/L),SODIUM,5,CHEMISTRY,138,138,138,138,Normal,Normal,,,,,,,Y,Y
BBC,BBC-10-145,145,10,78,ARM A,1,ARM A,1,Y,Y,Y,N,08DEC2006,30MAR2007,20DEC2006,13,,Week 2,2,Sodium (mmol/L),SODIUM,5,CHEMISTRY,140,140,138,138,Normal,Normal,8-22 DAYS,15,2,8,22,DAYS,,Y
BBC,BBC-10-145,145,10,79,ARM A,1,ARM A,1,Y,Y,Y,N,08DEC2006,30MAR2007,23JAN2007,47,,Week 6,6,Sodium (mmol/L),SODIUM,5,CHEMISTRY,140,140,138,138,Normal,Normal,37-50 DAYS,43,4,37,50,DAYS,,Y
BBC,BBC-10-145,145,10,16,ARM A,1,ARM A,1,Y,Y,Y,N,08DEC2006,30MAR2007,01DEC2006,-7,,,,"Aspartate Aminotransferase, AST (U/L)",AST,6,CHEMISTRY,19,19,20,20,Normal,Normal,,,,,,,,
BBC,BBC-10-145,145,10,20,ARM A,1,ARM A,1,Y,Y,Y,N,08DEC2006,30MAR2007,30MAR2007,113,,,,"Aspartate Aminotransferase, AST (U/L)",AST,6,CHEMISTRY,25,25,20,20,Normal,Normal,,,,,,,,
BBC,BBC-10-145,145,10,17,ARM A,1,ARM A,1,Y,Y,Y,N,08DEC2006,30MAR2007,08DEC2006,1,,Day 1 Baseline,0,"Aspartate Aminotransferase, AST (U/L)",AST,6,CHEMISTRY,20,20,20,20,Normal,Normal,,,,,,,Y,Y
BBC,BBC-10-145,145,10,18,ARM A,1,ARM A,1,Y,Y,Y,N,08DEC2006,30MAR2007,20DEC2006,13,,Week 2,2,"Aspartate Aminotransferase, AST (U/L)",AST,6,CHEMISTRY,25,25,20,20,Normal,Normal,8-22 DAYS,15,2,8,22,DAYS,,Y
BBC,BBC-10-145,145,10,19,ARM A,1,ARM A,1,Y,Y,Y,N,08DEC2006,30MAR2007,23JAN2007,47,,Week 6,6,"Aspartate Aminotransferase, AST (U/L)",AST,6,CHEMISTRY,22,22,20,20,Normal,Normal,37-50 DAYS,43,4,37,50,DAYS,,Y
BBC,BBC-10-145,145,10,11,ARM A,1,ARM A,1,Y,Y,Y,N,08DEC2006,30MAR2007,01DEC2006,-7,,,,"Alanine Aminotransferase, ALT (U/L)",ALT,7,CHEMISTRY,33,33,35,35,Normal,Normal,,,,,,,,
BBC,BBC-10-145,145,10,15,ARM A,1,ARM A,1,Y,Y,Y,N,08DEC2006,30MAR2007,30MAR2007,113,,,,"Alanine Aminotransferase, ALT (U/L)",ALT,7,CHEMISTRY,51,51,35,35,High,Normal,,,,,,,,
BBC,BBC-10-145,145,10,12,ARM A,1,ARM A,1,Y,Y,Y,N,08DEC2006,30MAR2007,08DEC2006,1,,Day 1 Baseline,0,"Alanine Aminotransferase, ALT (U/L)",ALT,7,CHEMISTRY,35,35,35,35,Normal,Normal,,,,,,,Y,Y
BBC,BBC-10-145,145,10,13,ARM A,1,ARM A,1,Y,Y,Y,N,08DEC2006,30MAR2007,20DEC2006,13,,Week 2,2,"Alanine Aminotransferase, ALT (U/L)",ALT,7,CHEMISTRY,59,59,35,35,High,Normal,8-22 DAYS,15,2,8,22,DAYS,,Y
BBC,BBC-10-145,145,10,14,ARM A,1,ARM A,1,Y,Y,Y,N,08DEC2006,30MAR2007,23JAN2007,47,,Week 6,6,"Alanine Aminotransferase, ALT (U/L)",ALT,7,CHEMISTRY,48,48,35,35,High,Normal,37-50 DAYS,43,4,37,50,DAYS,,Y
BBC,BBC-10-145,145,10,26,ARM A,1,ARM A,1,Y,Y,Y,N,08DEC2006,30MAR2007,01DEC2006,-7,,,,"Blood Urea Nitrogen, BUN (mg/dL)",BUN,8,CHEMISTRY,12,12,10,10,Normal,Normal,,,,,,,,
BBC,BBC-10-145,145,10,30,ARM A,1,ARM A,1,Y,Y,Y,N,08DEC2006,30MAR2007,30MAR2007,113,,,,"Blood Urea Nitrogen, BUN (mg/dL)",BUN,8,CHEMISTRY,10,10,10,10,Normal,Normal,,,,,,,,
BBC,BBC-10-145,145,10,27,ARM A,1,ARM A,1,Y,Y,Y,N,08DEC2006,30MAR2007,08DEC2006,1,,Day 1 Baseline,0,"Blood Urea Nitrogen, BUN (mg/dL)",BUN,8,CHEMISTRY,10,10,10,10,Normal,Normal,,,,,,,Y,Y
BBC,BBC-10-145,145,10,28,ARM A,1,ARM A,1,Y,Y,Y,N,08DEC2006,30MAR2007,20DEC2006,13,,Week 2,2,"Blood Urea Nitrogen, BUN (mg/dL)",BUN,8,CHEMISTRY,14,14,10,10,Normal,Normal,8-22 DAYS,15,2,8,22,DAYS,,Y
BBC,BBC-10-145,145,10,29,ARM A,1,ARM A,1,Y,Y,Y,N,08DEC2006,30MAR2007,23JAN2007,47,,Week 6,6,"Blood Urea Nitrogen, BUN (mg/dL)",BUN,8,CHEMISTRY,15,15,10,10,Normal,Normal,37-50 DAYS,43,4,37,50,DAYS,,Y
BBC,BBC-10-145,145,10,51,ARM A,1,ARM A,1,Y,Y,Y,N,08DEC2006,30MAR2007,01DEC2006,-7,,,,Glucose (mg/dL),GLUC,9,CHEMISTRY,98,98,96,96,Normal,Normal,,,,,,,,
BBC,BBC-10-145,145,10,55,ARM A,1,ARM A,1,Y,Y,Y,N,08DEC2006,30MAR2007,30MAR2007,113,,,,Glucose (mg/dL),GLUC,9,CHEMISTRY,98,98,96,96,Normal,Normal,,,,,,,,
BBC,BBC-10-145,145,10,52,ARM A,1,ARM A,1,Y,Y,Y,N,08DEC2006,30MAR2007,08DEC2006,1,,Day 1 Baseline,0,Glucose (mg/dL),GLUC,9,CHEMISTRY,96,96,96,96,Normal,Normal,,,,,,,Y,Y
BBC,BBC-10-145,145,10,53,ARM A,1,ARM A,1,Y,Y,Y,N,08DEC2006,30MAR2007,20DEC2006,13,,Week 2,2,Glucose (mg/dL),GLUC,9,CHEMISTRY,98,98,96,96,Normal,Normal,8-22 DAYS,15,2,8,22,DAYS,,Y
BBC,BBC-10-145,145,10,54,ARM A,1,ARM A,1,Y,Y,Y,N,08DEC2006,30MAR2007,23JAN2007,47,,Week 6,6,Glucose (mg/dL),GLUC,9,CHEMISTRY,104,104,96,96,High,Normal,37-50 DAYS,43,4,37,50,DAYS,,Y
BBC,BBC-10-145,145,10,6,ARM A,1,ARM A,1,Y,Y,Y,N,08DEC2006,30MAR2007,01DEC2006,-7,,,,Alkaline Phosphatase (U/L),ALP,10,CHEMISTRY,80,80,77,77,Normal,Normal,,,,,,,,
BBC,BBC-10-145,145,10,10,ARM A,1,ARM A,1,Y,Y,Y,N,08DEC2006,30MAR2007,30MAR2007,113,,,,Alkaline Phosphatase (U/L),ALP,10,CHEMISTRY,90,90,77,77,Normal,Normal,,,,,,,,
BBC,BBC-10-145,145,10,7,ARM A,1,ARM A,1,Y,Y,Y,N,08DEC2006,30MAR2007,08DEC2006,1,,Day 1 Baseline,0,Alkaline Phosphatase (U/L),ALP,10,CHEMISTRY,77,77,77,77,Normal,Normal,,,,,,,Y,Y
BBC,BBC-10-145,145,10,8,ARM A,1,ARM A,1,Y,Y,Y,N,08DEC2006,30MAR2007,20DEC2006,13,,Week 2,2,Alkaline Phosphatase (U/L),ALP,10,CHEMISTRY,83,83,77,77,Normal,Normal,8-22 DAYS,15,2,8,22,DAYS,,Y
BBC,BBC-10-145,145,10,9,ARM A,1,ARM A,1,Y,Y,Y,N,08DEC2006,30MAR2007,23JAN2007,47,,Week 6,6,Alkaline Phosphatase (U/L),ALP,10,CHEMISTRY,86,86,77,77,Normal,Normal,37-50 DAYS,43,4,37,50,DAYS,,Y
BBC,BBC-10-145,145,10,86,ARM A,1,ARM A,1,Y,Y,Y,N,08DEC2006,30MAR2007,01DEC2006,-7,,,,Uric Acid (mg/dL),URATE,11,CHEMISTRY,7,7.0,6.1,6.1,Normal,Normal,,,,,,,,
BBC,BBC-10-145,145,10,90,ARM A,1,ARM A,1,Y,Y,Y,N,08DEC2006,30MAR2007,30MAR2007,113,,,,Uric Acid (mg/dL),URATE,11,CHEMISTRY,7.4,7.4,6.1,6.1,Normal,Normal,,,,,,,,
BBC,BBC-10-145,145,10,87,ARM A,1,ARM A,1,Y,Y,Y,N,08DEC2006,30MAR2007,08DEC2006,1,,Day 1 Baseline,0,Uric Acid (mg/dL),URATE,11,CHEMISTRY,6.1,6.1,6.1,6.1,Normal,Normal,,,,,,,Y,Y
BBC,BBC-10-145,145,10,88,ARM A,1,ARM A,1,Y,Y,Y,N,08DEC2006,30MAR2007,20DEC2006,13,,Week 2,2,Uric Acid (mg/dL),URATE,11,CHEMISTRY,7.4,7.4,6.1,6.1,Normal,Normal,8-22 DAYS,15,2,8,22,DAYS,,Y
BBC,BBC-10-145,145,10,89,ARM A,1,ARM A,1,Y,Y,Y,N,08DEC2006,30MAR2007,23JAN2007,47,,Week 6,6,Uric Acid (mg/dL),URATE,11,CHEMISTRY,7.2,7.2,6.1,6.1,Normal,Normal,37-50 DAYS,43,4,37,50,DAYS,,Y
BBC,BBC-10-145,145,10,66,ARM A,1,ARM A,1,Y,Y,Y,N,08DEC2006,30MAR2007,01DEC2006,-7,,,,Inorganic Phosphorus (mg/dL),PHOS,12,CHEMISTRY,3.9,3.9,3.5,3.5,Normal,Normal,,,,,,,,
BBC,BBC-10-145,145,10,70,ARM A,1,ARM A,1,Y,Y,Y,N,08DEC2006,30MAR2007,30MAR2007,113,,,,Inorganic Phosphorus (mg/dL),PHOS,12,CHEMISTRY,4,4.0,3.5,3.5,Normal,Normal,,,,,,,,
BBC,BBC-10-145,145,10,67,ARM A,1,ARM A,1,Y,Y,Y,N,08DEC2006,30MAR2007,08DEC2006,1,,Day 1 Baseline,0,Inorganic Phosphorus (mg/dL),PHOS,12,CHEMISTRY,3.5,3.5,3.5,3.5,Normal,Normal,,,,,,,Y,Y
BBC,BBC-10-145,145,10,68,ARM A,1,ARM A,1,Y,Y,Y,N,08DEC2006,30MAR2007,20DEC2006,13,,Week 2,2,Inorganic Phosphorus (mg/dL),PHOS,12,CHEMISTRY,3.5,3.5,3.5,3.5,Normal,Normal,8-22 DAYS,15,2,8,22,DAYS,,Y
BBC,BBC-10-145,145,10,69,ARM A,1,ARM A,1,Y,Y,Y,N,08DEC2006,30MAR2007,23JAN2007,47,,Week 6,6,Inorganic Phosphorus (mg/dL),PHOS,12,CHEMISTRY,4.4,4.4,3.5,3.5,Normal,Normal,37-50 DAYS,43,4,37,50,DAYS,,Y
BBC,BBC-10-145,145,10,1,ARM A,1,ARM A,1,Y,Y,Y,N,08DEC2006,30MAR2007,01DEC2006,-7,,,,Albumin (g/dL),ALB,13,CHEMISTRY,4.8,4.8,4.8,4.8,Normal,Normal,,,,,,,,
BBC,BBC-10-145,145,10,5,ARM A,1,ARM A,1,Y,Y,Y,N,08DEC2006,30MAR2007,30MAR2007,113,,,,Albumin (g/dL),ALB,13,CHEMISTRY,4.6,4.6,4.8,4.8,Normal,Normal,,,,,,,,
BBC,BBC-10-145,145,10,2,ARM A,1,ARM A,1,Y,Y,Y,N,08DEC2006,30MAR2007,08DEC2006,1,,Day 1 Baseline,0,Albumin (g/dL),ALB,13,CHEMISTRY,4.8,4.8,4.8,4.8,Normal,Normal,,,,,,,Y,Y
BBC,BBC-10-145,145,10,3,ARM A,1,ARM A,1,Y,Y,Y,N,08DEC2006,30MAR2007,20DEC2006,13,,Week 2,2,Albumin (g/dL),ALB,13,CHEMISTRY,4.6,4.6,4.8,4.8,Normal,Normal,8-22 DAYS,15,2,8,22,DAYS,,Y
BBC,BBC-10-145,145,10,4,ARM A,1,ARM A,1,Y,Y,Y,N,08DEC2006,30MAR2007,23JAN2007,47,,Week 6,6,Albumin (g/dL),ALB,13,CHEMISTRY,4.5,4.5,4.8,4.8,Normal,Normal,37-50 DAYS,43,4,37,50,DAYS,,Y
BBC,BBC-10-145,145,10,71,ARM A,1,ARM A,1,Y,Y,Y,N,08DEC2006,30MAR2007,01DEC2006,-7,,,,Total Protein (g/dL),PROT,14,CHEMISTRY,7.3,7.3,7.4,7.4,Normal,Normal,,,,,,,,
BBC,BBC-10-145,145,10,75,ARM A,1,ARM A,1,Y,Y,Y,N,08DEC2006,30MAR2007,30MAR2007,113,,,,Total Protein (g/dL),PROT,14,CHEMISTRY,7.2,7.2,7.4,7.4,Normal,Normal,,,,,,,,
BBC,BBC-10-145,145,10,72,ARM A,1,ARM A,1,Y,Y,Y,N,08DEC2006,30MAR2007,08DEC2006,1,,Day 1 Baseline,0,Total Protein (g/dL),PROT,14,CHEMISTRY,7.4,7.4,7.4,7.4,Normal,Normal,,,,,,,Y,Y
BBC,BBC-10-145,145,10,73,ARM A,1,ARM A,1,Y,Y,Y,N,08DEC2006,30MAR2007,20DEC2006,13,,Week 2,2,Total Protein (g/dL),PROT,14,CHEMISTRY,7.2,7.2,7.4,7.4,Normal,Normal,8-22 DAYS,15,2,8,22,DAYS,,Y
BBC,BBC-10-145,145,10,74,ARM A,1,ARM A,1,Y,Y,Y,N,08DEC2006,30MAR2007,23JAN2007,47,,Week 6,6,Total Protein (g/dL),PROT,14,CHEMISTRY,7.6,7.6,7.4,7.4,Normal,Normal,37-50 DAYS,43,4,37,50,DAYS,,Y
BBC,BBC-10-145,145,10,61,ARM A,1,ARM A,1,Y,Y,Y,N,08DEC2006,30MAR2007,01DEC2006,-7,,,,Lipase (U/L),LIPASE,15,CHEMISTRY,12,12,18,18,Normal,Normal,,,,,,,,
BBC,BBC-10-145,145,10,65,ARM A,1,ARM A,1,Y,Y,Y,N,08DEC2006,30MAR2007,30MAR2007,113,,,,Lipase (U/L),LIPASE,15,CHEMISTRY,23,23,18,18,Normal,Normal,,,,,,,,
BBC,BBC-10-145,145,10,62,ARM A,1,ARM A,1,Y,Y,Y,N,08DEC2006,30MAR2007,08DEC2006,1,,Day 1 Baseline,0,Lipase (U/L),LIPASE,15,CHEMISTRY,18,18,18,18,Normal,Normal,,,,,,,Y,Y
BBC,BBC-10-145,145,10,63,ARM A,1,ARM A,1,Y,Y,Y,N,08DEC2006,30MAR2007,20DEC2006,13,,Week 2,2,Lipase (U/L),LIPASE,15,CHEMISTRY,43,43,18,18,Normal,Normal,8-22 DAYS,15,2,8,22,DAYS,,Y
BBC,BBC-10-145,145,10,64,ARM A,1,ARM A,1,Y,Y,Y,N,08DEC2006,30MAR2007,23JAN2007,47,,Week 6,6,Lipase (U/L),LIPASE,15,CHEMISTRY,24,24,18,18,Normal,Normal,37-50 DAYS,43,4,37,50,DAYS,,Y
BBC,BBC-10-145,145,10,36,ARM A,1,ARM A,1,Y,Y,Y,N,08DEC2006,30MAR2007,01DEC2006,-7,,,,Total Cholesterol (mg/dL),CHOL,16,CHEMISTRY,145,145,145,145,Normal,Normal,,,,,,,,
BBC,BBC-10-145,145,10,40,ARM A,1,ARM A,1,Y,Y,Y,N,08DEC2006,30MAR2007,30MAR2007,113,,,,Total Cholesterol (mg/dL),CHOL,16,CHEMISTRY,136,136,145,145,Normal,Normal,,,,,,,,
BBC,BBC-10-145,145,10,37,ARM A,1,ARM A,1,Y,Y,Y,N,08DEC2006,30MAR2007,08DEC2006,1,,Day 1 Baseline,0,Total Cholesterol (mg/dL),CHOL,16,CHEMISTRY,145,145,145,145,Normal,Normal,,,,,,,Y,Y
BBC,BBC-10-145,145,10,38,ARM A,1,ARM A,1,Y,Y,Y,N,08DEC2006,30MAR2007,20DEC2006,13,,Week 2,2,Total Cholesterol (mg/dL),CHOL,16,CHEMISTRY,176,176,145,145,Normal,Normal,8-22 DAYS,15,2,8,22,DAYS,,Y
BBC,BBC-10-145,145,10,39,ARM A,1,ARM A,1,Y,Y,Y,N,08DEC2006,30MAR2007,23JAN2007,47,,Week 6,6,Total Cholesterol (mg/dL),CHOL,16,CHEMISTRY,170,170,145,145,Normal,Normal,37-50 DAYS,43,4,37,50,DAYS,,Y
BBC,BBC-10-145,145,10,81,ARM A,1,ARM A,1,Y,Y,Y,N,08DEC2006,30MAR2007,01DEC2006,-7,,,,Triglycerides (mg/dL),TRIG,17,CHEMISTRY,265,265,216,216,High,High,,,,,,,,
BBC,BBC-10-145,145,10,85,ARM A,1,ARM A,1,Y,Y,Y,N,08DEC2006,30MAR2007,30MAR2007,113,,,,Triglycerides (mg/dL),TRIG,17,CHEMISTRY,368,368,216,216,High,High,,,,,,,,
BBC,BBC-10-145,145,10,82,ARM A,1,ARM A,1,Y,Y,Y,N,08DEC2006,30MAR2007,08DEC2006,1,,Day 1 Baseline,0,Triglycerides (mg/dL),TRIG,17,CHEMISTRY,216,216,216,216,High,High,,,,,,,Y,Y
BBC,BBC-10-145,145,10,83,ARM A,1,ARM A,1,Y,Y,Y,N,08DEC2006,30MAR2007,20DEC2006,13,,Week 2,2,Triglycerides (mg/dL),TRIG,17,CHEMISTRY,662,662,216,216,High,High,8-22 DAYS,15,2,8,22,DAYS,,Y
BBC,BBC-10-145,145,10,84,ARM A,1,ARM A,1,Y,Y,Y,N,08DEC2006,30MAR2007,23JAN2007,47,,Week 6,6,Triglycerides (mg/dL),TRIG,17,CHEMISTRY,547,547,216,216,High,High,37-50 DAYS,43,4,37,50,DAYS,,Y
BBC,BBC-10-145,145,10,46,ARM A,1,ARM A,1,Y,Y,Y,N,08DEC2006,30MAR2007,01DEC2006,-7,,,,Creatinine (mg/dL),CREAT,18,CHEMISTRY,0.9,0.9,0.7,0.7,Normal,Low,,,,,,,,
BBC,BBC-10-145,145,10,50,ARM A,1,ARM A,1,Y,Y,Y,N,08DEC2006,30MAR2007,30MAR2007,113,,,,Creatinine (mg/dL),CREAT,18,CHEMISTRY,0.8,0.8,0.7,0.7,Low,Low,,,,,,,,
BBC,BBC-10-145,145,10,47,ARM A,1,ARM A,1,Y,Y,Y,N,08DEC2006,30MAR2007,08DEC2006,1,,Day 1 Baseline,0,Creatinine (mg/dL),CREAT,18,CHEMISTRY,0.7,0.7,0.7,0.7,Low,Low,,,,,,,Y,Y
BBC,BBC-10-145,145,10,48,ARM A,1,ARM A,1,Y,Y,Y,N,08DEC2006,30MAR2007,20DEC2006,13,,Week 2,2,Creatinine (mg/dL),CREAT,18,CHEMISTRY,0.8,0.8,0.7,0.7,Low,Low,8-22 DAYS,15,2,8,22,DAYS,,Y
BBC,BBC-10-145,145,10,49,ARM A,1,ARM A,1,Y,Y,Y,N,08DEC2006,30MAR2007,23JAN2007,47,,Week 6,6,Creatinine (mg/dL),CREAT,18,CHEMISTRY,0.9,0.9,0.7,0.7,Normal,Low,37-50 DAYS,43,4,37,50,DAYS,,Y
BBC,BBC-10-145,145,10,142,ARM A,1,ARM A,1,Y,Y,Y,N,08DEC2006,30MAR2007,01DEC2006,-7,,,,Lymphocytes (10^9/L),LYM,19,HEMATOLOGY,2.47,2.47,2.48,2.48,Normal,Normal,,,,,,,,
BBC,BBC-10-145,145,10,146,ARM A,1,ARM A,1,Y,Y,Y,N,08DEC2006,30MAR2007,30MAR2007,113,,,,Lymphocytes (10^9/L),LYM,19,HEMATOLOGY,2.41,2.41,2.48,2.48,Normal,Normal,,,,,,,,
BBC,BBC-10-145,145,10,143,ARM A,1,ARM A,1,Y,Y,Y,N,08DEC2006,30MAR2007,08DEC2006,1,,Day 1 Baseline,0,Lymphocytes (10^9/L),LYM,19,HEMATOLOGY,2.48,2.48,2.48,2.48,Normal,Normal,,,,,,,Y,Y
BBC,BBC-10-145,145,10,144,ARM A,1,ARM A,1,Y,Y,Y,N,08DEC2006,30MAR2007,20DEC2006,13,,Week 2,2,Lymphocytes (10^9/L),LYM,19,HEMATOLOGY,2.12,2.12,2.48,2.48,Normal,Normal,8-22 DAYS,15,2,8,22,DAYS,,Y
BBC,BBC-10-145,145,10,145,ARM A,1,ARM A,1,Y,Y,Y,N,08DEC2006,30MAR2007,23JAN2007,47,,Week 6,6,Lymphocytes (10^9/L),LYM,19,HEMATOLOGY,1.91,1.91,2.48,2.48,Normal,Normal,37-50 DAYS,43,4,37,50,DAYS,,Y
BBC,BBC-10-145,145,10,167,ARM A,1,ARM A,1,Y,Y,Y,N,08DEC2006,30MAR2007,01DEC2006,-7,,,,Monocytes (10^9/L),MONO,20,HEMATOLOGY,0.43,0.43,0.43,0.43,Normal,Normal,,,,,,,,
BBC,BBC-10-145,145,10,171,ARM A,1,ARM A,1,Y,Y,Y,N,08DEC2006,30MAR2007,30MAR2007,113,,,,Monocytes (10^9/L),MONO,20,HEMATOLOGY,0.42,0.42,0.43,0.43,Normal,Normal,,,,,,,,
BBC,BBC-10-145,145,10,168,ARM A,1,ARM A,1,Y,Y,Y,N,08DEC2006,30MAR2007,08DEC2006,1,,Day 1 Baseline,0,Monocytes (10^9/L),MONO,20,HEMATOLOGY,0.43,0.43,0.43,0.43,Normal,Normal,,,,,,,Y,Y
BBC,BBC-10-145,145,10,169,ARM A,1,ARM A,1,Y,Y,Y,N,08DEC2006,30MAR2007,20DEC2006,13,,Week 2,2,Monocytes (10^9/L),MONO,20,HEMATOLOGY,0.45,0.45,0.43,0.43,Normal,Normal,8-22 DAYS,15,2,8,22,DAYS,,Y
BBC,BBC-10-145,145,10,170,ARM A,1,ARM A,1,Y,Y,Y,N,08DEC2006,30MAR2007,23JAN2007,47,,Week 6,6,Monocytes (10^9/L),MONO,20,HEMATOLOGY,0.48,0.48,0.43,0.43,Normal,Normal,37-50 DAYS,43,4,37,50,DAYS,,Y
BBC,BBC-10-145,145,10,197,ARM A,1,ARM A,1,Y,Y,Y,N,08DEC2006,30MAR2007,01DEC2006,-7,,,,RBC Distribution Width (%),RDW,21,HEMATOLOGY,12.6,12.6,12.4,12.4,Normal,Normal,,,,,,,,
BBC,BBC-10-145,145,10,201,ARM A,1,ARM A,1,Y,Y,Y,N,08DEC2006,30MAR2007,30MAR2007,113,,,,RBC Distribution Width (%),RDW,21,HEMATOLOGY,12.5,12.5,12.4,12.4,Normal,Normal,,,,,,,,
BBC,BBC-10-145,145,10,198,ARM A,1,ARM A,1,Y,Y,Y,N,08DEC2006,30MAR2007,08DEC2006,1,,Day 1 Baseline,0,RBC Distribution Width (%),RDW,21,HEMATOLOGY,12.4,12.4,12.4,12.4,Normal,Normal,,,,,,,Y,Y
BBC,BBC-10-145,145,10,199,ARM A,1,ARM A,1,Y,Y,Y,N,08DEC2006,30MAR2007,20DEC2006,13,,Week 2,2,RBC Distribution Width (%),RDW,21,HEMATOLOGY,12.4,12.4,12.4,12.4,Normal,Normal,8-22 DAYS,15,2,8,22,DAYS,,Y
BBC,BBC-10-145,145,10,200,ARM A,1,ARM A,1,Y,Y,Y,N,08DEC2006,30MAR2007,23JAN2007,47,,Week 6,6,RBC Distribution Width (%),RDW,21,HEMATOLOGY,12.5,12.5,12.4,12.4,Normal,Normal,37-50 DAYS,43,4,37,50,DAYS,,Y
BBC,BBC-10-145,145,10,187,ARM A,1,ARM A,1,Y,Y,Y,N,08DEC2006,30MAR2007,01DEC2006,-7,,,,Platelet Count (10^9/L),PLAT,22,HEMATOLOGY,386,386,384,384,Normal,Normal,,,,,,,,
BBC,BBC-10-145,145,10,191,ARM A,1,ARM A,1,Y,Y,Y,N,08DEC2006,30MAR2007,30MAR2007,113,,,,Platelet Count (10^9/L),PLAT,22,HEMATOLOGY,367,367,384,384,Normal,Normal,,,,,,,,
BBC,BBC-10-145,145,10,188,ARM A,1,ARM A,1,Y,Y,Y,N,08DEC2006,30MAR2007,08DEC2006,1,,Day 1 Baseline,0,Platelet Count (10^9/L),PLAT,22,HEMATOLOGY,384,384,384,384,Normal,Normal,,,,,,,Y,Y
BBC,BBC-10-145,145,10,189,ARM A,1,ARM A,1,Y,Y,Y,N,08DEC2006,30MAR2007,20DEC2006,13,,Week 2,2,Platelet Count (10^9/L),PLAT,22,HEMATOLOGY,381,381,384,384,Normal,Normal,8-22 DAYS,15,2,8,22,DAYS,,Y
BBC,BBC-10-145,145,10,190,ARM A,1,ARM A,1,Y,Y,Y,N,08DEC2006,30MAR2007,23JAN2007,47,,Week 6,6,Platelet Count (10^9/L),PLAT,22,HEMATOLOGY,389,389,384,384,Normal,Normal,37-50 DAYS,43,4,37,50,DAYS,,Y
BBC,BBC-10-145,145,10,177,ARM A,1,ARM A,1,Y,Y,Y,N,08DEC2006,30MAR2007,01DEC2006,-7,,,,Neutrophils (10^9/L),NEUT,23,HEMATOLOGY,4.54,4.54,3.6,3.60,Normal,Normal,,,,,,,,
BBC,BBC-10-145,145,10,181,ARM A,1,ARM A,1,Y,Y,Y,N,08DEC2006,30MAR2007,30MAR2007,113,,,,Neutrophils (10^9/L),NEUT,23,HEMATOLOGY,3,3.00,3.6,3.60,Normal,Normal,,,,,,,,
BBC,BBC-10-145,145,10,178,ARM A,1,ARM A,1,Y,Y,Y,N,08DEC2006,30MAR2007,08DEC2006,1,,Day 1 Baseline,0,Neutrophils (10^9/L),NEUT,23,HEMATOLOGY,3.6,3.60,3.6,3.60,Normal,Normal,,,,,,,Y,Y
BBC,BBC-10-145,145,10,179,ARM A,1,ARM A,1,Y,Y,Y,N,08DEC2006,30MAR2007,20DEC2006,13,,Week 2,2,Neutrophils (10^9/L),NEUT,23,HEMATOLOGY,4.65,4.65,3.6,3.60,Normal,Normal,8-22 DAYS,15,2,8,22,DAYS,,Y
BBC,BBC-10-145,145,10,180,ARM A,1,ARM A,1,Y,Y,Y,N,08DEC2006,30MAR2007,23JAN2007,47,,Week 6,6,Neutrophils (10^9/L),NEUT,23,HEMATOLOGY,4,4.00,3.6,3.60,Normal,Normal,37-50 DAYS,43,4,37,50,DAYS,,Y
BBC,BBC-10-145,145,10,122,ARM A,1,ARM A,1,Y,Y,Y,N,08DEC2006,30MAR2007,01DEC2006,-7,,,,Eosinophils (10^9/L),EOS,24,HEMATOLOGY,0.15,0.15,0.17,0.17,Normal,Normal,,,,,,,,
BBC,BBC-10-145,145,10,126,ARM A,1,ARM A,1,Y,Y,Y,N,08DEC2006,30MAR2007,30MAR2007,113,,,,Eosinophils (10^9/L),EOS,24,HEMATOLOGY,0.12,0.12,0.17,0.17,Normal,Normal,,,,,,,,
BBC,BBC-10-145,145,10,123,ARM A,1,ARM A,1,Y,Y,Y,N,08DEC2006,30MAR2007,08DEC2006,1,,Day 1 Baseline,0,Eosinophils (10^9/L),EOS,24,HEMATOLOGY,0.17,0.17,0.17,0.17,Normal,Normal,,,,,,,Y,Y
BBC,BBC-10-145,145,10,124,ARM A,1,ARM A,1,Y,Y,Y,N,08DEC2006,30MAR2007,20DEC2006,13,,Week 2,2,Eosinophils (10^9/L),EOS,24,HEMATOLOGY,0.18,0.18,0.17,0.17,Normal,Normal,8-22 DAYS,15,2,8,22,DAYS,,Y
BBC,BBC-10-145,145,10,125,ARM A,1,ARM A,1,Y,Y,Y,N,08DEC2006,30MAR2007,23JAN2007,47,,Week 6,6,Eosinophils (10^9/L),EOS,24,HEMATOLOGY,0.22,0.22,0.17,0.17,Normal,Normal,37-50 DAYS,43,4,37,50,DAYS,,Y
BBC,BBC-10-145,145,10,112,ARM A,1,ARM A,1,Y,Y,Y,N,08DEC2006,30MAR2007,01DEC2006,-7,,,,Basophils (10^9/L),BASO,25,HEMATOLOGY,0.02,0.02,0.02,0.02,Normal,Normal,,,,,,,,
BBC,BBC-10-145,145,10,116,ARM A,1,ARM A,1,Y,Y,Y,N,08DEC2006,30MAR2007,30MAR2007,113,,,,Basophils (10^9/L),BASO,25,HEMATOLOGY,0.07,0.07,0.02,0.02,Normal,Normal,,,,,,,,
BBC,BBC-10-145,145,10,113,ARM A,1,ARM A,1,Y,Y,Y,N,08DEC2006,30MAR2007,08DEC2006,1,,Day 1 Baseline,0,Basophils (10^9/L),BASO,25,HEMATOLOGY,0.02,0.02,0.02,0.02,Normal,Normal,,,,,,,Y,Y
BBC,BBC-10-145,145,10,114,ARM A,1,ARM A,1,Y,Y,Y,N,08DEC2006,30MAR2007,20DEC2006,13,,Week 2,2,Basophils (10^9/L),BASO,25,HEMATOLOGY,0.03,0.03,0.02,0.02,Normal,Normal,8-22 DAYS,15,2,8,22,DAYS,,Y
BBC,BBC-10-145,145,10,115,ARM A,1,ARM A,1,Y,Y,Y,N,08DEC2006,30MAR2007,23JAN2007,47,,Week 6,6,Basophils (10^9/L),BASO,25,HEMATOLOGY,0.02,0.02,0.02,0.02,Normal,Normal,37-50 DAYS,43,4,37,50,DAYS,,Y
BBC,BBC-10-145,145,10,202,ARM A,1,ARM A,1,Y,Y,Y,N,08DEC2006,30MAR2007,01DEC2006,-7,,,,Leukocytes (10^9/L),WBC,26,HEMATOLOGY,7.6,7.6,6.7,6.7,Normal,Normal,,,,,,,,
BBC,BBC-10-145,145,10,206,ARM A,1,ARM A,1,Y,Y,Y,N,08DEC2006,30MAR2007,30MAR2007,113,,,,Leukocytes (10^9/L),WBC,26,HEMATOLOGY,6,6.0,6.7,6.7,Normal,Normal,,,,,,,,
BBC,BBC-10-145,145,10,203,ARM A,1,ARM A,1,Y,Y,Y,N,08DEC2006,30MAR2007,08DEC2006,1,,Day 1 Baseline,0,Leukocytes (10^9/L),WBC,26,HEMATOLOGY,6.7,6.7,6.7,6.7,Normal,Normal,,,,,,,Y,Y
BBC,BBC-10-145,145,10,204,ARM A,1,ARM A,1,Y,Y,Y,N,08DEC2006,30MAR2007,20DEC2006,13,,Week 2,2,Leukocytes (10^9/L),WBC,26,HEMATOLOGY,7.4,7.4,6.7,6.7,Normal,Normal,8-22 DAYS,15,2,8,22,DAYS,,Y
BBC,BBC-10-145,145,10,205,ARM A,1,ARM A,1,Y,Y,Y,N,08DEC2006,30MAR2007,23JAN2007,47,,Week 6,6,Leukocytes (10^9/L),WBC,26,HEMATOLOGY,6.6,6.6,6.7,6.7,Normal,Normal,37-50 DAYS,43,4,37,50,DAYS,,Y
BBC,BBC-10-145,145,10,192,ARM A,1,ARM A,1,Y,Y,Y,N,08DEC2006,30MAR2007,01DEC2006,-7,,,,Erythrocytes (10^12/L),RBC,27,HEMATOLOGY,4.71,4.71,4.87,4.87,Normal,Normal,,,,,,,,
BBC,BBC-10-145,145,10,196,ARM A,1,ARM A,1,Y,Y,Y,N,08DEC2006,30MAR2007,30MAR2007,113,,,,Erythrocytes (10^12/L),RBC,27,HEMATOLOGY,4.81,4.81,4.87,4.87,Normal,Normal,,,,,,,,
BBC,BBC-10-145,145,10,193,ARM A,1,ARM A,1,Y,Y,Y,N,08DEC2006,30MAR2007,08DEC2006,1,,Day 1 Baseline,0,Erythrocytes (10^12/L),RBC,27,HEMATOLOGY,4.87,4.87,4.87,4.87,Normal,Normal,,,,,,,Y,Y
BBC,BBC-10-145,145,10,194,ARM A,1,ARM A,1,Y,Y,Y,N,08DEC2006,30MAR2007,20DEC2006,13,,Week 2,2,Erythrocytes (10^12/L),RBC,27,HEMATOLOGY,4.78,4.78,4.87,4.87,Normal,Normal,8-22 DAYS,15,2,8,22,DAYS,,Y
BBC,BBC-10-145,145,10,195,ARM A,1,ARM A,1,Y,Y,Y,N,08DEC2006,30MAR2007,23JAN2007,47,,Week 6,6,Erythrocytes (10^12/L),RBC,27,HEMATOLOGY,4.8,4.80,4.87,4.87,Normal,Normal,37-50 DAYS,43,4,37,50,DAYS,,Y
BBC,BBC-10-145,145,10,137,ARM A,1,ARM A,1,Y,Y,Y,N,08DEC2006,30MAR2007,01DEC2006,-7,,,,Hemoglobin (g/dL),HGB,28,HEMATOLOGY,14.4,14.4,14.7,14.7,Normal,Normal,,,,,,,,
BBC,BBC-10-145,145,10,141,ARM A,1,ARM A,1,Y,Y,Y,N,08DEC2006,30MAR2007,30MAR2007,113,,,,Hemoglobin (g/dL),HGB,28,HEMATOLOGY,14.7,14.7,14.7,14.7,Normal,Normal,,,,,,,,
BBC,BBC-10-145,145,10,138,ARM A,1,ARM A,1,Y,Y,Y,N,08DEC2006,30MAR2007,08DEC2006,1,,Day 1 Baseline,0,Hemoglobin (g/dL),HGB,28,HEMATOLOGY,14.7,14.7,14.7,14.7,Normal,Normal,,,,,,,Y,Y
BBC,BBC-10-145,145,10,139,ARM A,1,ARM A,1,Y,Y,Y,N,08DEC2006,30MAR2007,20DEC2006,13,,Week 2,2,Hemoglobin (g/dL),HGB,28,HEMATOLOGY,14.8,14.8,14.7,14.7,Normal,Normal,8-22 DAYS,15,2,8,22,DAYS,,Y
BBC,BBC-10-145,145,10,140,ARM A,1,ARM A,1,Y,Y,Y,N,08DEC2006,30MAR2007,23JAN2007,47,,Week 6,6,Hemoglobin (g/dL),HGB,28,HEMATOLOGY,14.7,14.7,14.7,14.7,Normal,Normal,37-50 DAYS,43,4,37,50,DAYS,,Y
BBC,BBC-10-145,145,10,132,ARM A,1,ARM A,1,Y,Y,Y,N,08DEC2006,30MAR2007,01DEC2006,-7,,,,Hematocrit (%),HCT,29,HEMATOLOGY,40.9,40.9,41.9,41.9,Normal,Normal,,,,,,,,
BBC,BBC-10-145,145,10,136,ARM A,1,ARM A,1,Y,Y,Y,N,08DEC2006,30MAR2007,30MAR2007,113,,,,Hematocrit (%),HCT,29,HEMATOLOGY,41.2,41.2,41.9,41.9,Normal,Normal,,,,,,,,
BBC,BBC-10-145,145,10,133,ARM A,1,ARM A,1,Y,Y,Y,N,08DEC2006,30MAR2007,08DEC2006,1,,Day 1 Baseline,0,Hematocrit (%),HCT,29,HEMATOLOGY,41.9,41.9,41.9,41.9,Normal,Normal,,,,,,,Y,Y
BBC,BBC-10-145,145,10,134,ARM A,1,ARM A,1,Y,Y,Y,N,08DEC2006,30MAR2007,20DEC2006,13,,Week 2,2,Hematocrit (%),HCT,29,HEMATOLOGY,41.5,41.5,41.9,41.9,Normal,Normal,8-22 DAYS,15,2,8,22,DAYS,,Y
BBC,BBC-10-145,145,10,135,ARM A,1,ARM A,1,Y,Y,Y,N,08DEC2006,30MAR2007,23JAN2007,47,,Week 6,6,Hematocrit (%),HCT,29,HEMATOLOGY,41.3,41.3,41.9,41.9,Normal,Normal,37-50 DAYS,43,4,37,50,DAYS,,Y
BBC,BBC-10-145,145,10,162,ARM A,1,ARM A,1,Y,Y,Y,N,08DEC2006,30MAR2007,01DEC2006,-7,,,,Ery. Mean Corpuscular Volume (fL),MCV,30,HEMATOLOGY,86.8,86.8,86,86.0,Normal,Normal,,,,,,,,
BBC,BBC-10-145,145,10,166,ARM A,1,ARM A,1,Y,Y,Y,N,08DEC2006,30MAR2007,30MAR2007,113,,,,Ery. Mean Corpuscular Volume (fL),MCV,30,HEMATOLOGY,85.7,85.7,86,86.0,Normal,Normal,,,,,,,,
BBC,BBC-10-145,145,10,163,ARM A,1,ARM A,1,Y,Y,Y,N,08DEC2006,30MAR2007,08DEC2006,1,,Day 1 Baseline,0,Ery. Mean Corpuscular Volume (fL),MCV,30,HEMATOLOGY,86,86.0,86,86.0,Normal,Normal,,,,,,,Y,Y
BBC,BBC-10-145,145,10,164,ARM A,1,ARM A,1,Y,Y,Y,N,08DEC2006,30MAR2007,20DEC2006,13,,Week 2,2,Ery. Mean Corpuscular Volume (fL),MCV,30,HEMATOLOGY,86.8,86.8,86,86.0,Normal,Normal,8-22 DAYS,15,2,8,22,DAYS,,Y
BBC,BBC-10-145,145,10,165,ARM A,1,ARM A,1,Y,Y,Y,N,08DEC2006,30MAR2007,23JAN2007,47,,Week 6,6,Ery. Mean Corpuscular Volume (fL),MCV,30,HEMATOLOGY,85.9,85.9,86,86.0,Normal,Normal,37-50 DAYS,43,4,37,50,DAYS,,Y
BBC,BBC-10-145,145,10,152,ARM A,1,ARM A,1,Y,Y,Y,N,08DEC2006,30MAR2007,01DEC2006,-7,,,,Ery. Mean Corpuscular Hemoglobin (pg),MCH,31,HEMATOLOGY,30.6,30.6,30.2,30.2,Normal,Normal,,,,,,,,
BBC,BBC-10-145,145,10,156,ARM A,1,ARM A,1,Y,Y,Y,N,08DEC2006,30MAR2007,30MAR2007,113,,,,Ery. Mean Corpuscular Hemoglobin (pg),MCH,31,HEMATOLOGY,30.6,30.6,30.2,30.2,Normal,Normal,,,,,,,,
BBC,BBC-10-145,145,10,153,ARM A,1,ARM A,1,Y,Y,Y,N,08DEC2006,30MAR2007,08DEC2006,1,,Day 1 Baseline,0,Ery. Mean Corpuscular Hemoglobin (pg),MCH,31,HEMATOLOGY,30.2,30.2,30.2,30.2,Normal,Normal,,,,,,,Y,Y
BBC,BBC-10-145,145,10,154,ARM A,1,ARM A,1,Y,Y,Y,N,08DEC2006,30MAR2007,20DEC2006,13,,Week 2,2,Ery. Mean Corpuscular Hemoglobin (pg),MCH,31,HEMATOLOGY,30.9,30.9,30.2,30.2,Normal,Normal,8-22 DAYS,15,2,8,22,DAYS,,Y
BBC,BBC-10-145,145,10,155,ARM A,1,ARM A,1,Y,Y,Y,N,08DEC2006,30MAR2007,23JAN2007,47,,Week 6,6,Ery. Mean Corpuscular Hemoglobin (pg),MCH,31,HEMATOLOGY,30.5,30.5,30.2,30.2,Normal,Normal,37-50 DAYS,43,4,37,50,DAYS,,Y
BBC,BBC-10-145,145,10,157,ARM A,1,ARM A,1,Y,Y,Y,N,08DEC2006,30MAR2007,01DEC2006,-7,,,,Ery. Mean Corpuscular HGB Concentration (g/dL),MCHC,32,HEMATOLOGY,35.2,35.2,35.1,35.1,Normal,Normal,,,,,,,,
BBC,BBC-10-145,145,10,161,ARM A,1,ARM A,1,Y,Y,Y,N,08DEC2006,30MAR2007,30MAR2007,113,,,,Ery. Mean Corpuscular HGB Concentration (g/dL),MCHC,32,HEMATOLOGY,35.7,35.7,35.1,35.1,High,Normal,,,,,,,,
BBC,BBC-10-145,145,10,158,ARM A,1,ARM A,1,Y,Y,Y,N,08DEC2006,30MAR2007,08DEC2006,1,,Day 1 Baseline,0,Ery. Mean Corpuscular HGB Concentration (g/dL),MCHC,32,HEMATOLOGY,35.1,35.1,35.1,35.1,Normal,Normal,,,,,,,Y,Y
BBC,BBC-10-145,145,10,159,ARM A,1,ARM A,1,Y,Y,Y,N,08DEC2006,30MAR2007,20DEC2006,13,,Week 2,2,Ery. Mean Corpuscular HGB Concentration (g/dL),MCHC,32,HEMATOLOGY,35.6,35.6,35.1,35.1,High,Normal,8-22 DAYS,15,2,8,22,DAYS,,Y
BBC,BBC-10-145,145,10,160,ARM A,1,ARM A,1,Y,Y,Y,N,08DEC2006,30MAR2007,23JAN2007,47,,Week 6,6,Ery. Mean Corpuscular HGB Concentration (g/dL),MCHC,32,HEMATOLOGY,35.5,35.5,35.1,35.1,High,Normal,37-50 DAYS,43,4,37,50,DAYS,,Y
BBC,BBC-10-145,145,10,222,ARM A,1,ARM A,1,Y,Y,Y,N,08DEC2006,30MAR2007,01DEC2006,-7,,,,Creatinine (mg/dL),CREACONC,33,URINALYSIS,110,110,67,67,,,,,,,,,,
BBC,BBC-10-145,145,10,226,ARM A,1,ARM A,1,Y,Y,Y,N,08DEC2006,30MAR2007,30MAR2007,113,,,,Creatinine (mg/dL),CREACONC,33,URINALYSIS,126,126,67,67,,,,,,,,,,
BBC,BBC-10-145,145,10,223,ARM A,1,ARM A,1,Y,Y,Y,N,08DEC2006,30MAR2007,08DEC2006,1,,Day 1 Baseline,0,Creatinine (mg/dL),CREACONC,33,URINALYSIS,67,67,67,67,,,,,,,,,Y,Y
BBC,BBC-10-145,145,10,224,ARM A,1,ARM A,1,Y,Y,Y,N,08DEC2006,30MAR2007,20DEC2006,13,,Week 2,2,Creatinine (mg/dL),CREACONC,33,URINALYSIS,152,152,67,67,,,8-22 DAYS,15,2,8,22,DAYS,,Y
BBC,BBC-10-145,145,10,225,ARM A,1,ARM A,1,Y,Y,Y,N,08DEC2006,30MAR2007,23JAN2007,47,,Week 6,6,Creatinine (mg/dL),CREACONC,33,URINALYSIS,161,161,67,67,,,37-50 DAYS,43,4,37,50,DAYS,,Y
BBC,BBC-10-145,145,10,212,ARM A,1,ARM A,1,Y,Y,Y,N,08DEC2006,30MAR2007,01DEC2006,-7,,,,Calcium (mg/L),CACONC,34,URINALYSIS,26.88084,26.880840,32,32.000000,,,,,,,,,,
BBC,BBC-10-145,145,10,216,ARM A,1,ARM A,1,Y,Y,Y,N,08DEC2006,30MAR2007,30MAR2007,113,,,,Calcium (mg/L),CACONC,34,URINALYSIS,39,39.000000,32,32.000000,,,,,,,,,,
BBC,BBC-10-145,145,10,213,ARM A,1,ARM A,1,Y,Y,Y,N,08DEC2006,30MAR2007,08DEC2006,1,,Day 1 Baseline,0,Calcium (mg/L),CACONC,34,URINALYSIS,32,32.000000,32,32.000000,,,,,,,,,Y,Y
BBC,BBC-10-145,145,10,214,ARM A,1,ARM A,1,Y,Y,Y,N,08DEC2006,30MAR2007,20DEC2006,13,,Week 2,2,Calcium (mg/L),CACONC,34,URINALYSIS,45,45.000000,32,32.000000,,,8-22 DAYS,15,2,8,22,DAYS,,Y
BBC,BBC-10-145,145,10,215,ARM A,1,ARM A,1,Y,Y,Y,N,08DEC2006,30MAR2007,23JAN2007,47,,Week 6,6,Calcium (mg/L),CACONC,34,URINALYSIS,75,75.000000,32,32.000000,,,37-50 DAYS,43,4,37,50,DAYS,,Y
BBC,BBC-10-145,145,10,217,ARM A,1,ARM A,1,Y,Y,Y,N,08DEC2006,30MAR2007,01DEC2006,-7,,,,Calcium/Creatinine Ratio,CACREAT,35,URINALYSIS,0.02,0.02,0.05,0.05,,,,,,,,,,
BBC,BBC-10-145,145,10,221,ARM A,1,ARM A,1,Y,Y,Y,N,08DEC2006,30MAR2007,30MAR2007,113,,,,Calcium/Creatinine Ratio,CACREAT,35,URINALYSIS,0.03,0.03,0.05,0.05,,,,,,,,,,
BBC,BBC-10-145,145,10,218,ARM A,1,ARM A,1,Y,Y,Y,N,08DEC2006,30MAR2007,08DEC2006,1,,Day 1 Baseline,0,Calcium/Creatinine Ratio,CACREAT,35,URINALYSIS,0.05,0.05,0.05,0.05,,,,,,,,,Y,Y
BBC,BBC-10-145,145,10,219,ARM A,1,ARM A,1,Y,Y,Y,N,08DEC2006,30MAR2007,20DEC2006,13,,Week 2,2,Calcium/Creatinine Ratio,CACREAT,35,URINALYSIS,0.03,0.03,0.05,0.05,,,8-22 DAYS,15,2,8,22,DAYS,,Y
BBC,BBC-10-145,145,10,220,ARM A,1,ARM A,1,Y,Y,Y,N,08DEC2006,30MAR2007,23JAN2007,47,,Week 6,6,Calcium/Creatinine Ratio,CACREAT,35,URINALYSIS,0.05,0.05,0.05,0.05,,,37-50 DAYS,43,4,37,50,DAYS,,Y
BBC,BBC-10-145,145,10,260,ARM A,1,ARM A,1,Y,Y,Y,N,08DEC2006,30MAR2007,01DEC2006,-7,,,,Phosphate Concentration (mg/dL),PHOSCONC,36,URINALYSIS,60,60.0,21,21.0,,,,,,,,,,
BBC,BBC-10-145,145,10,264,ARM A,1,ARM A,1,Y,Y,Y,N,08DEC2006,30MAR2007,30MAR2007,113,,,,Phosphate Concentration (mg/dL),PHOSCONC,36,URINALYSIS,60,60.0,21,21.0,,,,,,,,,,
BBC,BBC-10-145,145,10,261,ARM A,1,ARM A,1,Y,Y,Y,N,08DEC2006,30MAR2007,08DEC2006,1,,Day 1 Baseline,0,Phosphate Concentration (mg/dL),PHOSCONC,36,URINALYSIS,21,21.0,21,21.0,,,,,,,,,Y,Y
BBC,BBC-10-145,145,10,262,ARM A,1,ARM A,1,Y,Y,Y,N,08DEC2006,30MAR2007,20DEC2006,13,,Week 2,2,Phosphate Concentration (mg/dL),PHOSCONC,36,URINALYSIS,39,39.0,21,21.0,,,8-22 DAYS,15,2,8,22,DAYS,,Y
BBC,BBC-10-145,145,10,263,ARM A,1,ARM A,1,Y,Y,Y,N,08DEC2006,30MAR2007,23JAN2007,47,,Week 6,6,Phosphate Concentration (mg/dL),PHOSCONC,36,URINALYSIS,82,82.0,21,21.0,,,37-50 DAYS,43,4,37,50,DAYS,,Y
BBC,BBC-10-145,145,10,99,ARM A,1,ARM A,1,Y,Y,Y,N,08DEC2006,30MAR2007,30MAR2007,113,,,,"Parathyroid Hormone, PTH (pmol/L)",PTHI,37,ENDOCRINE,3.8,3.8,2.2,2.2,Normal,Normal,,,,,,,,
BBC,BBC-10-145,145,10,95,ARM A,1,ARM A,1,Y,Y,Y,N,08DEC2006,30MAR2007,08DEC2006,1,,Day 1 Baseline,0,"Parathyroid Hormone, PTH (pmol/L)",PTHI,37,ENDOCRINE,2.2,2.2,2.2,2.2,Normal,Normal,,,,,,,Y,Y
BBC,BBC-10-145,145,10,97,ARM A,1,ARM A,1,Y,Y,Y,N,08DEC2006,30MAR2007,23JAN2007,47,,Week 6,6,"Parathyroid Hormone, PTH (pmol/L)",PTHI,37,ENDOCRINE,2.5,2.5,2.2,2.2,Normal,Normal,37-50 DAYS,43,4,37,50,DAYS,,Y
BBC,BBC-10-145,145,10,111,ARM A,1,ARM A,1,Y,Y,Y,N,08DEC2006,30MAR2007,30MAR2007,113,,,,25-Hydroxyvitamin D3 (ug/L),VITDIT3,38,ENDOCRINE,6.6,6.6,11,11.0,,,,,,,,,,
BBC,BBC-10-145,145,10,109,ARM A,1,ARM A,1,Y,Y,Y,N,08DEC2006,30MAR2007,08DEC2006,1,,Day 1 Baseline,0,25-Hydroxyvitamin D3 (ug/L),VITDIT3,38,ENDOCRINE,11,11.0,11,11.0,,,,,,,,,Y,Y
BBC,BBC-10-145,145,10,110,ARM A,1,ARM A,1,Y,Y,Y,N,08DEC2006,30MAR2007,23JAN2007,47,,Week 6,6,25-Hydroxyvitamin D3 (ug/L),VITDIT3,38,ENDOCRINE,7.9,7.9,11,11.0,,,37-50 DAYS,43,4,37,50,DAYS,,Y
BBC,BBC-10-145,145,10,93,ARM A,1,ARM A,1,Y,Y,Y,N,08DEC2006,30MAR2007,30MAR2007,113,,,,Osteocalcin (ug/L),OSTEOC,39,ENDOCRINE,14.5,14.5,12.7,12.7,,,,,,,,,,
BBC,BBC-10-145,145,10,91,ARM A,1,ARM A,1,Y,Y,Y,N,08DEC2006,30MAR2007,08DEC2006,1,,Day 1 Baseline,0,Osteocalcin (ug/L),OSTEOC,39,ENDOCRINE,12.7,12.7,12.7,12.7,,,,,,,,,Y,Y
BBC,BBC-10-145,145,10,92,ARM A,1,ARM A,1,Y,Y,Y,N,08DEC2006,30MAR2007,23JAN2007,47,,Week 6,6,Osteocalcin (ug/L),OSTEOC,39,ENDOCRINE,13.5,13.5,12.7,12.7,,,37-50 DAYS,43,4,37,50,DAYS,,Y
BBC,BBC-10-145,145,10,102,ARM A,1,ARM A,1,Y,Y,Y,N,08DEC2006,30MAR2007,30MAR2007,113,,,,"1, 25-Dihydroxyvitamin D (pmol/L)",VITDAT,40,ENDOCRINE,3.05,3.05,3.26,3.26,Normal,Normal,,,,,,,,
BBC,BBC-10-145,145,10,100,ARM A,1,ARM A,1,Y,Y,Y,N,08DEC2006,30MAR2007,08DEC2006,1,,Day 1 Baseline,0,"1, 25-Dihydroxyvitamin D (pmol/L)",VITDAT,40,ENDOCRINE,3.26,3.26,3.26,3.26,Normal,Normal,,,,,,,Y,Y
BBC,BBC-10-145,145,10,101,ARM A,1,ARM A,1,Y,Y,Y,N,08DEC2006,30MAR2007,23JAN2007,47,,Week 6,6,"1, 25-Dihydroxyvitamin D (pmol/L)",VITDAT,40,ENDOCRINE,2.94,2.94,3.26,3.26,Normal,Normal,37-50 DAYS,43,4,37,50,DAYS,,Y
BBC,BBC-10-146,146,10,31,ARM D,4,ARM D,4,Y,Y,Y,Y,11DEC2006,16MAR2007,29NOV2006,-12,,,,Total Calcium (mg/dL),CA,1,CHEMISTRY,9.9,9.9,9.7,9.7,Normal,Normal,,,,,,,,
BBC,BBC-10-146,146,10,32,ARM D,4,ARM D,4,Y,Y,Y,Y,11DEC2006,16MAR2007,11DEC2006,1,,Day 1 Baseline,0,Total Calcium (mg/dL),CA,1,CHEMISTRY,9.7,9.7,9.7,9.7,Normal,Normal,,,,,,,Y,Y
BBC,BBC-10-146,146,10,33,ARM D,4,ARM D,4,Y,Y,Y,Y,11DEC2006,16MAR2007,29DEC2006,19,,Week 2,2,Total Calcium (mg/dL),CA,1,CHEMISTRY,9.5,9.5,9.7,9.7,Normal,Normal,8-22 DAYS,15,4,8,22,DAYS,,Y
BBC,BBC-10-146,146,10,34,ARM D,4,ARM D,4,Y,Y,Y,Y,11DEC2006,16MAR2007,25JAN2007,46,,Week 6,6,Total Calcium (mg/dL),CA,1,CHEMISTRY,9.6,9.6,9.7,9.7,Normal,Normal,37-50 DAYS,43,3,37,50,DAYS,,Y
BBC,BBC-10-146,146,10,35,ARM D,4,ARM D,4,Y,Y,Y,Y,11DEC2006,16MAR2007,16MAR2007,96,,Week 12,12,Total Calcium (mg/dL),CA,1,CHEMISTRY,9.5,9.5,9.7,9.7,Normal,Normal,72-99 DAYS,85,11,72,99,DAYS,,Y
BBC,BBC-10-146,146,10,56,ARM D,4,ARM D,4,Y,Y,Y,Y,11DEC2006,16MAR2007,29NOV2006,-12,,,,Potassium (mmol/L),K,2,CHEMISTRY,3.8,3.8,3.9,3.9,Normal,Normal,,,,,,,,
BBC,BBC-10-146,146,10,57,ARM D,4,ARM D,4,Y,Y,Y,Y,11DEC2006,16MAR2007,11DEC2006,1,,Day 1 Baseline,0,Potassium (mmol/L),K,2,CHEMISTRY,3.9,3.9,3.9,3.9,Normal,Normal,,,,,,,Y,Y
BBC,BBC-10-146,146,10,58,ARM D,4,ARM D,4,Y,Y,Y,Y,11DEC2006,16MAR2007,29DEC2006,19,,Week 2,2,Potassium (mmol/L),K,2,CHEMISTRY,4.1,4.1,3.9,3.9,Normal,Normal,8-22 DAYS,15,4,8,22,DAYS,,Y
BBC,BBC-10-146,146,10,59,ARM D,4,ARM D,4,Y,Y,Y,Y,11DEC2006,16MAR2007,25JAN2007,46,,Week 6,6,Potassium (mmol/L),K,2,CHEMISTRY,3.9,3.9,3.9,3.9,Normal,Normal,37-50 DAYS,43,3,37,50,DAYS,,Y
BBC,BBC-10-146,146,10,60,ARM D,4,ARM D,4,Y,Y,Y,Y,11DEC2006,16MAR2007,16MAR2007,96,,Week 12,12,Potassium (mmol/L),K,2,CHEMISTRY,3.9,3.9,3.9,3.9,Normal,Normal,72-99 DAYS,85,11,72,99,DAYS,,Y
BBC,BBC-10-146,146,10,41,ARM D,4,ARM D,4,Y,Y,Y,Y,11DEC2006,16MAR2007,29NOV2006,-12,,,,Chloride (mmol/L),CL,3,CHEMISTRY,101,101,102,102,Normal,Normal,,,,,,,,
BBC,BBC-10-146,146,10,42,ARM D,4,ARM D,4,Y,Y,Y,Y,11DEC2006,16MAR2007,11DEC2006,1,,Day 1 Baseline,0,Chloride (mmol/L),CL,3,CHEMISTRY,102,102,102,102,Normal,Normal,,,,,,,Y,Y
BBC,BBC-10-146,146,10,43,ARM D,4,ARM D,4,Y,Y,Y,Y,11DEC2006,16MAR2007,29DEC2006,19,,Week 2,2,Chloride (mmol/L),CL,3,CHEMISTRY,103,103,102,102,Normal,Normal,8-22 DAYS,15,4,8,22,DAYS,,Y
BBC,BBC-10-146,146,10,44,ARM D,4,ARM D,4,Y,Y,Y,Y,11DEC2006,16MAR2007,25JAN2007,46,,Week 6,6,Chloride (mmol/L),CL,3,CHEMISTRY,104,104,102,102,Normal,Normal,37-50 DAYS,43,3,37,50,DAYS,,Y
BBC,BBC-10-146,146,10,45,ARM D,4,ARM D,4,Y,Y,Y,Y,11DEC2006,16MAR2007,16MAR2007,96,,Week 12,12,Chloride (mmol/L),CL,3,CHEMISTRY,102,102,102,102,Normal,Normal,72-99 DAYS,85,11,72,99,DAYS,,Y
BBC,BBC-10-146,146,10,21,ARM D,4,ARM D,4,Y,Y,Y,Y,11DEC2006,16MAR2007,29NOV2006,-12,,,,Total Bilirubin (mg/dL),BILI,4,CHEMISTRY,0.6,0.6,0.2,0.2,Normal,Normal,,,,,,,,
BBC,BBC-10-146,146,10,22,ARM D,4,ARM D,4,Y,Y,Y,Y,11DEC2006,16MAR2007,11DEC2006,1,,Day 1 Baseline,0,Total Bilirubin (mg/dL),BILI,4,CHEMISTRY,0.2,0.2,0.2,0.2,Normal,Normal,,,,,,,Y,Y
BBC,BBC-10-146,146,10,23,ARM D,4,ARM D,4,Y,Y,Y,Y,11DEC2006,16MAR2007,29DEC2006,19,,Week 2,2,Total Bilirubin (mg/dL),BILI,4,CHEMISTRY,0.2,0.2,0.2,0.2,Normal,Normal,8-22 DAYS,15,4,8,22,DAYS,,Y
BBC,BBC-10-146,146,10,24,ARM D,4,ARM D,4,Y,Y,Y,Y,11DEC2006,16MAR2007,25JAN2007,46,,Week 6,6,Total Bilirubin (mg/dL),BILI,4,CHEMISTRY,0.2,0.2,0.2,0.2,Normal,Normal,37-50 DAYS,43,3,37,50,DAYS,,Y
BBC,BBC-10-146,146,10,25,ARM D,4,ARM D,4,Y,Y,Y,Y,11DEC2006,16MAR2007,16MAR2007,96,,Week 12,12,Total Bilirubin (mg/dL),BILI,4,CHEMISTRY,0.2,0.2,0.2,0.2,Normal,Normal,72-99 DAYS,85,11,72,99,DAYS,,Y
BBC,BBC-10-146,146,10,76,ARM D,4,ARM D,4,Y,Y,Y,Y,11DEC2006,16MAR2007,29NOV2006,-12,,,,Sodium (mmol/L),SODIUM,5,CHEMISTRY,139,139,138,138,Normal,Normal,,,,,,,,
BBC,BBC-10-146,146,10,77,ARM D,4,ARM D,4,Y,Y,Y,Y,11DEC2006,16MAR2007,11DEC2006,1,,Day 1 Baseline,0,Sodium (mmol/L),SODIUM,5,CHEMISTRY,138,138,138,138,Normal,Normal,,,,,,,Y,Y
BBC,BBC-10-146,146,10,78,ARM D,4,ARM D,4,Y,Y,Y,Y,11DEC2006,16MAR2007,29DEC2006,19,,Week 2,2,Sodium (mmol/L),SODIUM,5,CHEMISTRY,140,140,138,138,Normal,Normal,8-22 DAYS,15,4,8,22,DAYS,,Y
BBC,BBC-10-146,146,10,79,ARM D,4,ARM D,4,Y,Y,Y,Y,11DEC2006,16MAR2007,25JAN2007,46,,Week 6,6,Sodium (mmol/L),SODIUM,5,CHEMISTRY,140,140,138,138,Normal,Normal,37-50 DAYS,43,3,37,50,DAYS,,Y
BBC,BBC-10-146,146,10,80,ARM D,4,ARM D,4,Y,Y,Y,Y,11DEC2006,16MAR2007,16MAR2007,96,,Week 12,12,Sodium (mmol/L),SODIUM,5,CHEMISTRY,139,139,138,138,Normal,Normal,72-99 DAYS,85,11,72,99,DAYS,,Y
BBC,BBC-10-146,146,10,16,ARM D,4,ARM D,4,Y,Y,Y,Y,11DEC2006,16MAR2007,29NOV2006,-12,,,,"Aspartate Aminotransferase, AST (U/L)",AST,6,CHEMISTRY,28,28,24,24,Normal,Normal,,,,,,,,
BBC,BBC-10-146,146,10,17,ARM D,4,ARM D,4,Y,Y,Y,Y,11DEC2006,16MAR2007,11DEC2006,1,,Day 1 Baseline,0,"Aspartate Aminotransferase, AST (U/L)",AST,6,CHEMISTRY,24,24,24,24,Normal,Normal,,,,,,,Y,Y
BBC,BBC-10-146,146,10,18,ARM D,4,ARM D,4,Y,Y,Y,Y,11DEC2006,16MAR2007,29DEC2006,19,,Week 2,2,"Aspartate Aminotransferase, AST (U/L)",AST,6,CHEMISTRY,28,28,24,24,Normal,Normal,8-22 DAYS,15,4,8,22,DAYS,,Y
BBC,BBC-10-146,146,10,19,ARM D,4,ARM D,4,Y,Y,Y,Y,11DEC2006,16MAR2007,25JAN2007,46,,Week 6,6,"Aspartate Aminotransferase, AST (U/L)",AST,6,CHEMISTRY,23,23,24,24,Normal,Normal,37-50 DAYS,43,3,37,50,DAYS,,Y
BBC,BBC-10-146,146,10,20,ARM D,4,ARM D,4,Y,Y,Y,Y,11DEC2006,16MAR2007,16MAR2007,96,,Week 12,12,"Aspartate Aminotransferase, AST (U/L)",AST,6,CHEMISTRY,29,29,24,24,Normal,Normal,72-99 DAYS,85,11,72,99,DAYS,,Y
BBC,BBC-10-146,146,10,11,ARM D,4,ARM D,4,Y,Y,Y,Y,11DEC2006,16MAR2007,29NOV2006,-12,,,,"Alanine Aminotransferase, ALT (U/L)",ALT,7,CHEMISTRY,28,28,27,27,Normal,Normal,,,,,,,,
BBC,BBC-10-146,146,10,12,ARM D,4,ARM D,4,Y,Y,Y,Y,11DEC2006,16MAR2007,11DEC2006,1,,Day 1 Baseline,0,"Alanine Aminotransferase, ALT (U/L)",ALT,7,CHEMISTRY,27,27,27,27,Normal,Normal,,,,,,,Y,Y
BBC,BBC-10-146,146,10,13,ARM D,4,ARM D,4,Y,Y,Y,Y,11DEC2006,16MAR2007,29DEC2006,19,,Week 2,2,"Alanine Aminotransferase, ALT (U/L)",ALT,7,CHEMISTRY,43,43,27,27,Normal,Normal,8-22 DAYS,15,4,8,22,DAYS,,Y
BBC,BBC-10-146,146,10,14,ARM D,4,ARM D,4,Y,Y,Y,Y,11DEC2006,16MAR2007,25JAN2007,46,,Week 6,6,"Alanine Aminotransferase, ALT (U/L)",ALT,7,CHEMISTRY,24,24,27,27,Normal,Normal,37-50 DAYS,43,3,37,50,DAYS,,Y
BBC,BBC-10-146,146,10,15,ARM D,4,ARM D,4,Y,Y,Y,Y,11DEC2006,16MAR2007,16MAR2007,96,,Week 12,12,"Alanine Aminotransferase, ALT (U/L)",ALT,7,CHEMISTRY,38,38,27,27,Normal,Normal,72-99 DAYS,85,11,72,99,DAYS,,Y
BBC,BBC-10-146,146,10,26,ARM D,4,ARM D,4,Y,Y,Y,Y,11DEC2006,16MAR2007,29NOV2006,-12,,,,"Blood Urea Nitrogen, BUN (mg/dL)",BUN,8,CHEMISTRY,11,11,10,10,Normal,Normal,,,,,,,,
BBC,BBC-10-146,146,10,27,ARM D,4,ARM D,4,Y,Y,Y,Y,11DEC2006,16MAR2007,11DEC2006,1,,Day 1 Baseline,0,"Blood Urea Nitrogen, BUN (mg/dL)",BUN,8,CHEMISTRY,10,10,10,10,Normal,Normal,,,,,,,Y,Y
BBC,BBC-10-146,146,10,28,ARM D,4,ARM D,4,Y,Y,Y,Y,11DEC2006,16MAR2007,29DEC2006,19,,Week 2,2,"Blood Urea Nitrogen, BUN (mg/dL)",BUN,8,CHEMISTRY,13,13,10,10,Normal,Normal,8-22 DAYS,15,4,8,22,DAYS,,Y
BBC,BBC-10-146,146,10,29,ARM D,4,ARM D,4,Y,Y,Y,Y,11DEC2006,16MAR2007,25JAN2007,46,,Week 6,6,"Blood Urea Nitrogen, BUN (mg/dL)",BUN,8,CHEMISTRY,12,12,10,10,Normal,Normal,37-50 DAYS,43,3,37,50,DAYS,,Y
BBC,BBC-10-146,146,10,30,ARM D,4,ARM D,4,Y,Y,Y,Y,11DEC2006,16MAR2007,16MAR2007,96,,Week 12,12,"Blood Urea Nitrogen, BUN (mg/dL)",BUN,8,CHEMISTRY,17,17,10,10,Normal,Normal,72-99 DAYS,85,11,72,99,DAYS,,Y
BBC,BBC-10-146,146,10,51,ARM D,4,ARM D,4,Y,Y,Y,Y,11DEC2006,16MAR2007,29NOV2006,-12,,,,Glucose (mg/dL),GLUC,9,CHEMISTRY,104,104,86,86,High,Normal,,,,,,,,
BBC,BBC-10-146,146,10,52,ARM D,4,ARM D,4,Y,Y,Y,Y,11DEC2006,16MAR2007,11DEC2006,1,,Day 1 Baseline,0,Glucose (mg/dL),GLUC,9,CHEMISTRY,86,86,86,86,Normal,Normal,,,,,,,Y,Y
BBC,BBC-10-146,146,10,53,ARM D,4,ARM D,4,Y,Y,Y,Y,11DEC2006,16MAR2007,29DEC2006,19,,Week 2,2,Glucose (mg/dL),GLUC,9,CHEMISTRY,102,102,86,86,High,Normal,8-22 DAYS,15,4,8,22,DAYS,,Y
BBC,BBC-10-146,146,10,54,ARM D,4,ARM D,4,Y,Y,Y,Y,11DEC2006,16MAR2007,25JAN2007,46,,Week 6,6,Glucose (mg/dL),GLUC,9,CHEMISTRY,97,97,86,86,Normal,Normal,37-50 DAYS,43,3,37,50,DAYS,,Y
BBC,BBC-10-146,146,10,55,ARM D,4,ARM D,4,Y,Y,Y,Y,11DEC2006,16MAR2007,16MAR2007,96,,Week 12,12,Glucose (mg/dL),GLUC,9,CHEMISTRY,100,100,86,86,Normal,Normal,72-99 DAYS,85,11,72,99,DAYS,,Y
BBC,BBC-10-146,146,10,6,ARM D,4,ARM D,4,Y,Y,Y,Y,11DEC2006,16MAR2007,29NOV2006,-12,,,,Alkaline Phosphatase (U/L),ALP,10,CHEMISTRY,76,76,69,69,Normal,Normal,,,,,,,,
BBC,BBC-10-146,146,10,7,ARM D,4,ARM D,4,Y,Y,Y,Y,11DEC2006,16MAR2007,11DEC2006,1,,Day 1 Baseline,0,Alkaline Phosphatase (U/L),ALP,10,CHEMISTRY,69,69,69,69,Normal,Normal,,,,,,,Y,Y
BBC,BBC-10-146,146,10,8,ARM D,4,ARM D,4,Y,Y,Y,Y,11DEC2006,16MAR2007,29DEC2006,19,,Week 2,2,Alkaline Phosphatase (U/L),ALP,10,CHEMISTRY,57,57,69,69,Normal,Normal,8-22 DAYS,15,4,8,22,DAYS,,Y
BBC,BBC-10-146,146,10,9,ARM D,4,ARM D,4,Y,Y,Y,Y,11DEC2006,16MAR2007,25JAN2007,46,,Week 6,6,Alkaline Phosphatase (U/L),ALP,10,CHEMISTRY,58,58,69,69,Normal,Normal,37-50 DAYS,43,3,37,50,DAYS,,Y
BBC,BBC-10-146,146,10,10,ARM D,4,ARM D,4,Y,Y,Y,Y,11DEC2006,16MAR2007,16MAR2007,96,,Week 12,12,Alkaline Phosphatase (U/L),ALP,10,CHEMISTRY,68,68,69,69,Normal,Normal,72-99 DAYS,85,11,72,99,DAYS,,Y
BBC,BBC-10-146,146,10,86,ARM D,4,ARM D,4,Y,Y,Y,Y,11DEC2006,16MAR2007,29NOV2006,-12,,,,Uric Acid (mg/dL),URATE,11,CHEMISTRY,5.9,5.9,4.5,4.5,Normal,Normal,,,,,,,,
BBC,BBC-10-146,146,10,87,ARM D,4,ARM D,4,Y,Y,Y,Y,11DEC2006,16MAR2007,11DEC2006,1,,Day 1 Baseline,0,Uric Acid (mg/dL),URATE,11,CHEMISTRY,4.5,4.5,4.5,4.5,Normal,Normal,,,,,,,Y,Y
BBC,BBC-10-146,146,10,88,ARM D,4,ARM D,4,Y,Y,Y,Y,11DEC2006,16MAR2007,29DEC2006,19,,Week 2,2,Uric Acid (mg/dL),URATE,11,CHEMISTRY,5.4,5.4,4.5,4.5,Normal,Normal,8-22 DAYS,15,4,8,22,DAYS,,Y
BBC,BBC-10-146,146,10,89,ARM D,4,ARM D,4,Y,Y,Y,Y,11DEC2006,16MAR2007,25JAN2007,46,,Week 6,6,Uric Acid (mg/dL),URATE,11,CHEMISTRY,5,5.0,4.5,4.5,Normal,Normal,37-50 DAYS,43,3,37,50,DAYS,,Y
BBC,BBC-10-146,146,10,90,ARM D,4,ARM D,4,Y,Y,Y,Y,11DEC2006,16MAR2007,16MAR2007,96,,Week 12,12,Uric Acid (mg/dL),URATE,11,CHEMISTRY,5.6,5.6,4.5,4.5,Normal,Normal,72-99 DAYS,85,11,72,99,DAYS,,Y
BBC,BBC-10-146,146,10,66,ARM D,4,ARM D,4,Y,Y,Y,Y,11DEC2006,16MAR2007,29NOV2006,-12,,,,Inorganic Phosphorus (mg/dL),PHOS,12,CHEMISTRY,3.8,3.8,3.8,3.8,Normal,Normal,,,,,,,,
BBC,BBC-10-146,146,10,67,ARM D,4,ARM D,4,Y,Y,Y,Y,11DEC2006,16MAR2007,11DEC2006,1,,Day 1 Baseline,0,Inorganic Phosphorus (mg/dL),PHOS,12,CHEMISTRY,3.8,3.8,3.8,3.8,Normal,Normal,,,,,,,Y,Y
BBC,BBC-10-146,146,10,68,ARM D,4,ARM D,4,Y,Y,Y,Y,11DEC2006,16MAR2007,29DEC2006,19,,Week 2,2,Inorganic Phosphorus (mg/dL),PHOS,12,CHEMISTRY,3.8,3.8,3.8,3.8,Normal,Normal,8-22 DAYS,15,4,8,22,DAYS,,Y
BBC,BBC-10-146,146,10,69,ARM D,4,ARM D,4,Y,Y,Y,Y,11DEC2006,16MAR2007,25JAN2007,46,,Week 6,6,Inorganic Phosphorus (mg/dL),PHOS,12,CHEMISTRY,3.9,3.9,3.8,3.8,Normal,Normal,37-50 DAYS,43,3,37,50,DAYS,,Y
BBC,BBC-10-146,146,10,70,ARM D,4,ARM D,4,Y,Y,Y,Y,11DEC2006,16MAR2007,16MAR2007,96,,Week 12,12,Inorganic Phosphorus (mg/dL),PHOS,12,CHEMISTRY,5,5.0,3.8,3.8,High,Normal,72-99 DAYS,85,11,72,99,DAYS,,Y
BBC,BBC-10-146,146,10,1,ARM D,4,ARM D,4,Y,Y,Y,Y,11DEC2006,16MAR2007,29NOV2006,-12,,,,Albumin (g/dL),ALB,13,CHEMISTRY,4.9,4.9,5,5.0,Normal,Normal,,,,,,,,
BBC,BBC-10-146,146,10,2,ARM D,4,ARM D,4,Y,Y,Y,Y,11DEC2006,16MAR2007,11DEC2006,1,,Day 1 Baseline,0,Albumin (g/dL),ALB,13,CHEMISTRY,5,5.0,5,5.0,Normal,Normal,,,,,,,Y,Y
BBC,BBC-10-146,146,10,3,ARM D,4,ARM D,4,Y,Y,Y,Y,11DEC2006,16MAR2007,29DEC2006,19,,Week 2,2,Albumin (g/dL),ALB,13,CHEMISTRY,4.6,4.6,5,5.0,Normal,Normal,8-22 DAYS,15,4,8,22,DAYS,,Y
BBC,BBC-10-146,146,10,4,ARM D,4,ARM D,4,Y,Y,Y,Y,11DEC2006,16MAR2007,25JAN2007,46,,Week 6,6,Albumin (g/dL),ALB,13,CHEMISTRY,4.8,4.8,5,5.0,Normal,Normal,37-50 DAYS,43,3,37,50,DAYS,,Y
BBC,BBC-10-146,146,10,5,ARM D,4,ARM D,4,Y,Y,Y,Y,11DEC2006,16MAR2007,16MAR2007,96,,Week 12,12,Albumin (g/dL),ALB,13,CHEMISTRY,4.6,4.6,5,5.0,Normal,Normal,72-99 DAYS,85,11,72,99,DAYS,,Y
BBC,BBC-10-146,146,10,71,ARM D,4,ARM D,4,Y,Y,Y,Y,11DEC2006,16MAR2007,29NOV2006,-12,,,,Total Protein (g/dL),PROT,14,CHEMISTRY,7.4,7.4,7.5,7.5,Normal,Normal,,,,,,,,
BBC,BBC-10-146,146,10,72,ARM D,4,ARM D,4,Y,Y,Y,Y,11DEC2006,16MAR2007,11DEC2006,1,,Day 1 Baseline,0,Total Protein (g/dL),PROT,14,CHEMISTRY,7.5,7.5,7.5,7.5,Normal,Normal,,,,,,,Y,Y
BBC,BBC-10-146,146,10,73,ARM D,4,ARM D,4,Y,Y,Y,Y,11DEC2006,16MAR2007,29DEC2006,19,,Week 2,2,Total Protein (g/dL),PROT,14,CHEMISTRY,6.8,6.8,7.5,7.5,Normal,Normal,8-22 DAYS,15,4,8,22,DAYS,,Y
BBC,BBC-10-146,146,10,74,ARM D,4,ARM D,4,Y,Y,Y,Y,11DEC2006,16MAR2007,25JAN2007,46,,Week 6,6,Total Protein (g/dL),PROT,14,CHEMISTRY,7.3,7.3,7.5,7.5,Normal,Normal,37-50 DAYS,43,3,37,50,DAYS,,Y
BBC,BBC-10-146,146,10,75,ARM D,4,ARM D,4,Y,Y,Y,Y,11DEC2006,16MAR2007,16MAR2007,96,,Week 12,12,Total Protein (g/dL),PROT,14,CHEMISTRY,7.2,7.2,7.5,7.5,Normal,Normal,72-99 DAYS,85,11,72,99,DAYS,,Y
BBC,BBC-10-146,146,10,61,ARM D,4,ARM D,4,Y,Y,Y,Y,11DEC2006,16MAR2007,29NOV2006,-12,,,,Lipase (U/L),LIPASE,15,CHEMISTRY,11,11,30,30,Normal,Normal,,,,,,,,
BBC,BBC-10-146,146,10,62,ARM D,4,ARM D,4,Y,Y,Y,Y,11DEC2006,16MAR2007,11DEC2006,1,,Day 1 Baseline,0,Lipase (U/L),LIPASE,15,CHEMISTRY,30,30,30,30,Normal,Normal,,,,,,,Y,Y
BBC,BBC-10-146,146,10,63,ARM D,4,ARM D,4,Y,Y,Y,Y,11DEC2006,16MAR2007,29DEC2006,19,,Week 2,2,Lipase (U/L),LIPASE,15,CHEMISTRY,28,28,30,30,Normal,Normal,8-22 DAYS,15,4,8,22,DAYS,,Y
BBC,BBC-10-146,146,10,64,ARM D,4,ARM D,4,Y,Y,Y,Y,11DEC2006,16MAR2007,25JAN2007,46,,Week 6,6,Lipase (U/L),LIPASE,15,CHEMISTRY,26,26,30,30,Normal,Normal,37-50 DAYS,43,3,37,50,DAYS,,Y
BBC,BBC-10-146,146,10,65,ARM D,4,ARM D,4,Y,Y,Y,Y,11DEC2006,16MAR2007,16MAR2007,96,,Week 12,12,Lipase (U/L),LIPASE,15,CHEMISTRY,25,25,30,30,Normal,Normal,72-99 DAYS,85,11,72,99,DAYS,,Y
BBC,BBC-10-146,146,10,36,ARM D,4,ARM D,4,Y,Y,Y,Y,11DEC2006,16MAR2007,29NOV2006,-12,,,,Total Cholesterol (mg/dL),CHOL,16,CHEMISTRY,195,195,167,167,Normal,Normal,,,,,,,,
BBC,BBC-10-146,146,10,37,ARM D,4,ARM D,4,Y,Y,Y,Y,11DEC2006,16MAR2007,11DEC2006,1,,Day 1 Baseline,0,Total Cholesterol (mg/dL),CHOL,16,CHEMISTRY,167,167,167,167,Normal,Normal,,,,,,,Y,Y
BBC,BBC-10-146,146,10,38,ARM D,4,ARM D,4,Y,Y,Y,Y,11DEC2006,16MAR2007,29DEC2006,19,,Week 2,2,Total Cholesterol (mg/dL),CHOL,16,CHEMISTRY,184,184,167,167,Normal,Normal,8-22 DAYS,15,4,8,22,DAYS,,Y
BBC,BBC-10-146,146,10,39,ARM D,4,ARM D,4,Y,Y,Y,Y,11DEC2006,16MAR2007,25JAN2007,46,,Week 6,6,Total Cholesterol (mg/dL),CHOL,16,CHEMISTRY,150,150,167,167,Normal,Normal,37-50 DAYS,43,3,37,50,DAYS,,Y
BBC,BBC-10-146,146,10,40,ARM D,4,ARM D,4,Y,Y,Y,Y,11DEC2006,16MAR2007,16MAR2007,96,,Week 12,12,Total Cholesterol (mg/dL),CHOL,16,CHEMISTRY,193,193,167,167,Normal,Normal,72-99 DAYS,85,11,72,99,DAYS,,Y
BBC,BBC-10-146,146,10,81,ARM D,4,ARM D,4,Y,Y,Y,Y,11DEC2006,16MAR2007,29NOV2006,-12,,,,Triglycerides (mg/dL),TRIG,17,CHEMISTRY,160,160,232,232,Normal,High,,,,,,,,
BBC,BBC-10-146,146,10,82,ARM D,4,ARM D,4,Y,Y,Y,Y,11DEC2006,16MAR2007,11DEC2006,1,,Day 1 Baseline,0,Triglycerides (mg/dL),TRIG,17,CHEMISTRY,232,232,232,232,High,High,,,,,,,Y,Y
BBC,BBC-10-146,146,10,83,ARM D,4,ARM D,4,Y,Y,Y,Y,11DEC2006,16MAR2007,29DEC2006,19,,Week 2,2,Triglycerides (mg/dL),TRIG,17,CHEMISTRY,217,217,232,232,High,High,8-22 DAYS,15,4,8,22,DAYS,,Y
BBC,BBC-10-146,146,10,84,ARM D,4,ARM D,4,Y,Y,Y,Y,11DEC2006,16MAR2007,25JAN2007,46,,Week 6,6,Triglycerides (mg/dL),TRIG,17,CHEMISTRY,232,232,232,232,High,High,37-50 DAYS,43,3,37,50,DAYS,,Y
BBC,BBC-10-146,146,10,85,ARM D,4,ARM D,4,Y,Y,Y,Y,11DEC2006,16MAR2007,16MAR2007,96,,Week 12,12,Triglycerides (mg/dL),TRIG,17,CHEMISTRY,313,313,232,232,High,High,72-99 DAYS,85,11,72,99,DAYS,,Y
BBC,BBC-10-146,146,10,46,ARM D,4,ARM D,4,Y,Y,Y,Y,11DEC2006,16MAR2007,29NOV2006,-12,,,,Creatinine (mg/dL),CREAT,18,CHEMISTRY,1.1,1.1,1,1.0,Normal,Normal,,,,,,,,
BBC,BBC-10-146,146,10,47,ARM D,4,ARM D,4,Y,Y,Y,Y,11DEC2006,16MAR2007,11DEC2006,1,,Day 1 Baseline,0,Creatinine (mg/dL),CREAT,18,CHEMISTRY,1,1.0,1,1.0,Normal,Normal,,,,,,,Y,Y
BBC,BBC-10-146,146,10,48,ARM D,4,ARM D,4,Y,Y,Y,Y,11DEC2006,16MAR2007,29DEC2006,19,,Week 2,2,Creatinine (mg/dL),CREAT,18,CHEMISTRY,1.1,1.1,1,1.0,Normal,Normal,8-22 DAYS,15,4,8,22,DAYS,,Y
BBC,BBC-10-146,146,10,49,ARM D,4,ARM D,4,Y,Y,Y,Y,11DEC2006,16MAR2007,25JAN2007,46,,Week 6,6,Creatinine (mg/dL),CREAT,18,CHEMISTRY,1,1.0,1,1.0,Normal,Normal,37-50 DAYS,43,3,37,50,DAYS,,Y
BBC,BBC-10-146,146,10,50,ARM D,4,ARM D,4,Y,Y,Y,Y,11DEC2006,16MAR2007,16MAR2007,96,,Week 12,12,Creatinine (mg/dL),CREAT,18,CHEMISTRY,1.1,1.1,1,1.0,Normal,Normal,72-99 DAYS,85,11,72,99,DAYS,,Y
BBC,BBC-10-146,146,10,142,ARM D,4,ARM D,4,Y,Y,Y,Y,11DEC2006,16MAR2007,29NOV2006,-12,,,,Lymphocytes (10^9/L),LYM,19,HEMATOLOGY,1.1,1.10,1.93,1.93,Normal,Normal,,,,,,,,
BBC,BBC-10-146,146,10,143,ARM D,4,ARM D,4,Y,Y,Y,Y,11DEC2006,16MAR2007,11DEC2006,1,,Day 1 Baseline,0,Lymphocytes (10^9/L),LYM,19,HEMATOLOGY,1.93,1.93,1.93,1.93,Normal,Normal,,,,,,,Y,Y
BBC,BBC-10-146,146,10,144,ARM D,4,ARM D,4,Y,Y,Y,Y,11DEC2006,16MAR2007,29DEC2006,19,,Week 2,2,Lymphocytes (10^9/L),LYM,19,HEMATOLOGY,1.63,1.63,1.93,1.93,Normal,Normal,8-22 DAYS,15,4,8,22,DAYS,,Y
BBC,BBC-10-146,146,10,145,ARM D,4,ARM D,4,Y,Y,Y,Y,11DEC2006,16MAR2007,25JAN2007,46,,Week 6,6,Lymphocytes (10^9/L),LYM,19,HEMATOLOGY,1.41,1.41,1.93,1.93,Normal,Normal,37-50 DAYS,43,3,37,50,DAYS,,Y
BBC,BBC-10-146,146,10,146,ARM D,4,ARM D,4,Y,Y,Y,Y,11DEC2006,16MAR2007,16MAR2007,96,,Week 12,12,Lymphocytes (10^9/L),LYM,19,HEMATOLOGY,1.11,1.11,1.93,1.93,Normal,Normal,72-99 DAYS,85,11,72,99,DAYS,,Y
BBC,BBC-10-146,146,10,167,ARM D,4,ARM D,4,Y,Y,Y,Y,11DEC2006,16MAR2007,29NOV2006,-12,,,,Monocytes (10^9/L),MONO,20,HEMATOLOGY,0.45,0.45,0.42,0.42,Normal,Normal,,,,,,,,
BBC,BBC-10-146,146,10,168,ARM D,4,ARM D,4,Y,Y,Y,Y,11DEC2006,16MAR2007,11DEC2006,1,,Day 1 Baseline,0,Monocytes (10^9/L),MONO,20,HEMATOLOGY,0.42,0.42,0.42,0.42,Normal,Normal,,,,,,,Y,Y
BBC,BBC-10-146,146,10,169,ARM D,4,ARM D,4,Y,Y,Y,Y,11DEC2006,16MAR2007,29DEC2006,19,,Week 2,2,Monocytes (10^9/L),MONO,20,HEMATOLOGY,0.4,0.40,0.42,0.42,Normal,Normal,8-22 DAYS,15,4,8,22,DAYS,,Y
BBC,BBC-10-146,146,10,170,ARM D,4,ARM D,4,Y,Y,Y,Y,11DEC2006,16MAR2007,25JAN2007,46,,Week 6,6,Monocytes (10^9/L),MONO,20,HEMATOLOGY,0.36,0.36,0.42,0.42,Normal,Normal,37-50 DAYS,43,3,37,50,DAYS,,Y
BBC,BBC-10-146,146,10,171,ARM D,4,ARM D,4,Y,Y,Y,Y,11DEC2006,16MAR2007,16MAR2007,96,,Week 12,12,Monocytes (10^9/L),MONO,20,HEMATOLOGY,0.52,0.52,0.42,0.42,Normal,Normal,72-99 DAYS,85,11,72,99,DAYS,,Y
BBC,BBC-10-146,146,10,197,ARM D,4,ARM D,4,Y,Y,Y,Y,11DEC2006,16MAR2007,29NOV2006,-12,,,,RBC Distribution Width (%),RDW,21,HEMATOLOGY,13,13.0,12.4,12.4,Normal,Normal,,,,,,,,
BBC,BBC-10-146,146,10,198,ARM D,4,ARM D,4,Y,Y,Y,Y,11DEC2006,16MAR2007,11DEC2006,1,,Day 1 Baseline,0,RBC Distribution Width (%),RDW,21,HEMATOLOGY,12.4,12.4,12.4,12.4,Normal,Normal,,,,,,,Y,Y
BBC,BBC-10-146,146,10,199,ARM D,4,ARM D,4,Y,Y,Y,Y,11DEC2006,16MAR2007,29DEC2006,19,,Week 2,2,RBC Distribution Width (%),RDW,21,HEMATOLOGY,13.1,13.1,12.4,12.4,Normal,Normal,8-22 DAYS,15,4,8,22,DAYS,,Y
BBC,BBC-10-146,146,10,200,ARM D,4,ARM D,4,Y,Y,Y,Y,11DEC2006,16MAR2007,25JAN2007,46,,Week 6,6,RBC Distribution Width (%),RDW,21,HEMATOLOGY,12.6,12.6,12.4,12.4,Normal,Normal,37-50 DAYS,43,3,37,50,DAYS,,Y
BBC,BBC-10-146,146,10,201,ARM D,4,ARM D,4,Y,Y,Y,Y,11DEC2006,16MAR2007,16MAR2007,96,,Week 12,12,RBC Distribution Width (%),RDW,21,HEMATOLOGY,12.7,12.7,12.4,12.4,Normal,Normal,72-99 DAYS,85,11,72,99,DAYS,,Y
BBC,BBC-10-146,146,10,187,ARM D,4,ARM D,4,Y,Y,Y,Y,11DEC2006,16MAR2007,29NOV2006,-12,,,,Platelet Count (10^9/L),PLAT,22,HEMATOLOGY,272,272,294,294,Normal,Normal,,,,,,,,
BBC,BBC-10-146,146,10,188,ARM D,4,ARM D,4,Y,Y,Y,Y,11DEC2006,16MAR2007,11DEC2006,1,,Day 1 Baseline,0,Platelet Count (10^9/L),PLAT,22,HEMATOLOGY,294,294,294,294,Normal,Normal,,,,,,,Y,Y
BBC,BBC-10-146,146,10,189,ARM D,4,ARM D,4,Y,Y,Y,Y,11DEC2006,16MAR2007,29DEC2006,19,,Week 2,2,Platelet Count (10^9/L),PLAT,22,HEMATOLOGY,284,284,294,294,Normal,Normal,8-22 DAYS,15,4,8,22,DAYS,,Y
BBC,BBC-10-146,146,10,190,ARM D,4,ARM D,4,Y,Y,Y,Y,11DEC2006,16MAR2007,25JAN2007,46,,Week 6,6,Platelet Count (10^9/L),PLAT,22,HEMATOLOGY,235,235,294,294,Normal,Normal,37-50 DAYS,43,3,37,50,DAYS,,Y
BBC,BBC-10-146,146,10,191,ARM D,4,ARM D,4,Y,Y,Y,Y,11DEC2006,16MAR2007,16MAR2007,96,,Week 12,12,Platelet Count (10^9/L),PLAT,22,HEMATOLOGY,317,317,294,294,Normal,Normal,72-99 DAYS,85,11,72,99,DAYS,,Y
BBC,BBC-10-146,146,10,177,ARM D,4,ARM D,4,Y,Y,Y,Y,11DEC2006,16MAR2007,29NOV2006,-12,,,,Neutrophils (10^9/L),NEUT,23,HEMATOLOGY,5.21,5.21,5.02,5.02,Normal,Normal,,,,,,,,
BBC,BBC-10-146,146,10,178,ARM D,4,ARM D,4,Y,Y,Y,Y,11DEC2006,16MAR2007,11DEC2006,1,,Day 1 Baseline,0,Neutrophils (10^9/L),NEUT,23,HEMATOLOGY,5.02,5.02,5.02,5.02,Normal,Normal,,,,,,,Y,Y
BBC,BBC-10-146,146,10,179,ARM D,4,ARM D,4,Y,Y,Y,Y,11DEC2006,16MAR2007,29DEC2006,19,,Week 2,2,Neutrophils (10^9/L),NEUT,23,HEMATOLOGY,3.85,3.85,5.02,5.02,Normal,Normal,8-22 DAYS,15,4,8,22,DAYS,,Y
BBC,BBC-10-146,146,10,180,ARM D,4,ARM D,4,Y,Y,Y,Y,11DEC2006,16MAR2007,25JAN2007,46,,Week 6,6,Neutrophils (10^9/L),NEUT,23,HEMATOLOGY,4.26,4.26,5.02,5.02,Normal,Normal,37-50 DAYS,43,3,37,50,DAYS,,Y
BBC,BBC-10-146,146,10,181,ARM D,4,ARM D,4,Y,Y,Y,Y,11DEC2006,16MAR2007,16MAR2007,96,,Week 12,12,Neutrophils (10^9/L),NEUT,23,HEMATOLOGY,4.85,4.85,5.02,5.02,Normal,Normal,72-99 DAYS,85,11,72,99,DAYS,,Y
BBC,BBC-10-146,146,10,122,ARM D,4,ARM D,4,Y,Y,Y,Y,11DEC2006,16MAR2007,29NOV2006,-12,,,,Eosinophils (10^9/L),EOS,24,HEMATOLOGY,0.13,0.13,0.16,0.16,Normal,Normal,,,,,,,,
BBC,BBC-10-146,146,10,123,ARM D,4,ARM D,4,Y,Y,Y,Y,11DEC2006,16MAR2007,11DEC2006,1,,Day 1 Baseline,0,Eosinophils (10^9/L),EOS,24,HEMATOLOGY,0.16,0.16,0.16,0.16,Normal,Normal,,,,,,,Y,Y
BBC,BBC-10-146,146,10,124,ARM D,4,ARM D,4,Y,Y,Y,Y,11DEC2006,16MAR2007,29DEC2006,19,,Week 2,2,Eosinophils (10^9/L),EOS,24,HEMATOLOGY,0.15,0.15,0.16,0.16,Normal,Normal,8-22 DAYS,15,4,8,22,DAYS,,Y
BBC,BBC-10-146,146,10,125,ARM D,4,ARM D,4,Y,Y,Y,Y,11DEC2006,16MAR2007,25JAN2007,46,,Week 6,6,Eosinophils (10^9/L),EOS,24,HEMATOLOGY,0.11,0.11,0.16,0.16,Normal,Normal,37-50 DAYS,43,3,37,50,DAYS,,Y
BBC,BBC-10-146,146,10,126,ARM D,4,ARM D,4,Y,Y,Y,Y,11DEC2006,16MAR2007,16MAR2007,96,,Week 12,12,Eosinophils (10^9/L),EOS,24,HEMATOLOGY,0.08,0.08,0.16,0.16,Normal,Normal,72-99 DAYS,85,11,72,99,DAYS,,Y
BBC,BBC-10-146,146,10,112,ARM D,4,ARM D,4,Y,Y,Y,Y,11DEC2006,16MAR2007,29NOV2006,-12,,,,Basophils (10^9/L),BASO,25,HEMATOLOGY,0.02,0.02,0.09,0.09,Normal,Normal,,,,,,,,
BBC,BBC-10-146,146,10,113,ARM D,4,ARM D,4,Y,Y,Y,Y,11DEC2006,16MAR2007,11DEC2006,1,,Day 1 Baseline,0,Basophils (10^9/L),BASO,25,HEMATOLOGY,0.09,0.09,0.09,0.09,Normal,Normal,,,,,,,Y,Y
BBC,BBC-10-146,146,10,114,ARM D,4,ARM D,4,Y,Y,Y,Y,11DEC2006,16MAR2007,29DEC2006,19,,Week 2,2,Basophils (10^9/L),BASO,25,HEMATOLOGY,0.02,0.02,0.09,0.09,Normal,Normal,8-22 DAYS,15,4,8,22,DAYS,,Y
BBC,BBC-10-146,146,10,115,ARM D,4,ARM D,4,Y,Y,Y,Y,11DEC2006,16MAR2007,25JAN2007,46,,Week 6,6,Basophils (10^9/L),BASO,25,HEMATOLOGY,0.05,0.05,0.09,0.09,Normal,Normal,37-50 DAYS,43,3,37,50,DAYS,,Y
BBC,BBC-10-146,146,10,116,ARM D,4,ARM D,4,Y,Y,Y,Y,11DEC2006,16MAR2007,16MAR2007,96,,Week 12,12,Basophils (10^9/L),BASO,25,HEMATOLOGY,0.01,0.01,0.09,0.09,Normal,Normal,72-99 DAYS,85,11,72,99,DAYS,,Y
BBC,BBC-10-146,146,10,202,ARM D,4,ARM D,4,Y,Y,Y,Y,11DEC2006,16MAR2007,29NOV2006,-12,,,,Leukocytes (10^9/L),WBC,26,HEMATOLOGY,6.9,6.9,7.6,7.6,Normal,Normal,,,,,,,,
BBC,BBC-10-146,146,10,203,ARM D,4,ARM D,4,Y,Y,Y,Y,11DEC2006,16MAR2007,11DEC2006,1,,Day 1 Baseline,0,Leukocytes (10^9/L),WBC,26,HEMATOLOGY,7.6,7.6,7.6,7.6,Normal,Normal,,,,,,,Y,Y
BBC,BBC-10-146,146,10,204,ARM D,4,ARM D,4,Y,Y,Y,Y,11DEC2006,16MAR2007,29DEC2006,19,,Week 2,2,Leukocytes (10^9/L),WBC,26,HEMATOLOGY,6,6.0,7.6,7.6,Normal,Normal,8-22 DAYS,15,4,8,22,DAYS,,Y
BBC,BBC-10-146,146,10,205,ARM D,4,ARM D,4,Y,Y,Y,Y,11DEC2006,16MAR2007,25JAN2007,46,,Week 6,6,Leukocytes (10^9/L),WBC,26,HEMATOLOGY,6.2,6.2,7.6,7.6,Normal,Normal,37-50 DAYS,43,3,37,50,DAYS,,Y
BBC,BBC-10-146,146,10,206,ARM D,4,ARM D,4,Y,Y,Y,Y,11DEC2006,16MAR2007,16MAR2007,96,,Week 12,12,Leukocytes (10^9/L),WBC,26,HEMATOLOGY,6.6,6.6,7.6,7.6,Normal,Normal,72-99 DAYS,85,11,72,99,DAYS,,Y
BBC,BBC-10-146,146,10,192,ARM D,4,ARM D,4,Y,Y,Y,Y,11DEC2006,16MAR2007,29NOV2006,-12,,,,Erythrocytes (10^12/L),RBC,27,HEMATOLOGY,5.26,5.26,5.2,5.20,Normal,Normal,,,,,,,,
BBC,BBC-10-146,146,10,193,ARM D,4,ARM D,4,Y,Y,Y,Y,11DEC2006,16MAR2007,11DEC2006,1,,Day 1 Baseline,0,Erythrocytes (10^12/L),RBC,27,HEMATOLOGY,5.2,5.20,5.2,5.20,Normal,Normal,,,,,,,Y,Y
BBC,BBC-10-146,146,10,194,ARM D,4,ARM D,4,Y,Y,Y,Y,11DEC2006,16MAR2007,29DEC2006,19,,Week 2,2,Erythrocytes (10^12/L),RBC,27,HEMATOLOGY,4.91,4.91,5.2,5.20,Normal,Normal,8-22 DAYS,15,4,8,22,DAYS,,Y
BBC,BBC-10-146,146,10,195,ARM D,4,ARM D,4,Y,Y,Y,Y,11DEC2006,16MAR2007,25JAN2007,46,,Week 6,6,Erythrocytes (10^12/L),RBC,27,HEMATOLOGY,5.01,5.01,5.2,5.20,Normal,Normal,37-50 DAYS,43,3,37,50,DAYS,,Y
BBC,BBC-10-146,146,10,196,ARM D,4,ARM D,4,Y,Y,Y,Y,11DEC2006,16MAR2007,16MAR2007,96,,Week 12,12,Erythrocytes (10^12/L),RBC,27,HEMATOLOGY,5.34,5.34,5.2,5.20,Normal,Normal,72-99 DAYS,85,11,72,99,DAYS,,Y
BBC,BBC-10-146,146,10,137,ARM D,4,ARM D,4,Y,Y,Y,Y,11DEC2006,16MAR2007,29NOV2006,-12,,,,Hemoglobin (g/dL),HGB,28,HEMATOLOGY,15.5,15.5,15.5,15.5,Normal,Normal,,,,,,,,
BBC,BBC-10-146,146,10,138,ARM D,4,ARM D,4,Y,Y,Y,Y,11DEC2006,16MAR2007,11DEC2006,1,,Day 1 Baseline,0,Hemoglobin (g/dL),HGB,28,HEMATOLOGY,15.5,15.5,15.5,15.5,Normal,Normal,,,,,,,Y,Y
BBC,BBC-10-146,146,10,139,ARM D,4,ARM D,4,Y,Y,Y,Y,11DEC2006,16MAR2007,29DEC2006,19,,Week 2,2,Hemoglobin (g/dL),HGB,28,HEMATOLOGY,14.4,14.4,15.5,15.5,Normal,Normal,8-22 DAYS,15,4,8,22,DAYS,,Y
BBC,BBC-10-146,146,10,140,ARM D,4,ARM D,4,Y,Y,Y,Y,11DEC2006,16MAR2007,25JAN2007,46,,Week 6,6,Hemoglobin (g/dL),HGB,28,HEMATOLOGY,15.1,15.1,15.5,15.5,Normal,Normal,37-50 DAYS,43,3,37,50,DAYS,,Y
BBC,BBC-10-146,146,10,141,ARM D,4,ARM D,4,Y,Y,Y,Y,11DEC2006,16MAR2007,16MAR2007,96,,Week 12,12,Hemoglobin (g/dL),HGB,28,HEMATOLOGY,16.2,16.2,15.5,15.5,Normal,Normal,72-99 DAYS,85,11,72,99,DAYS,,Y
BBC,BBC-10-146,146,10,132,ARM D,4,ARM D,4,Y,Y,Y,Y,11DEC2006,16MAR2007,29NOV2006,-12,,,,Hematocrit (%),HCT,29,HEMATOLOGY,44.3,44.3,44.3,44.3,Normal,Normal,,,,,,,,
BBC,BBC-10-146,146,10,133,ARM D,4,ARM D,4,Y,Y,Y,Y,11DEC2006,16MAR2007,11DEC2006,1,,Day 1 Baseline,0,Hematocrit (%),HCT,29,HEMATOLOGY,44.3,44.3,44.3,44.3,Normal,Normal,,,,,,,Y,Y
BBC,BBC-10-146,146,10,134,ARM D,4,ARM D,4,Y,Y,Y,Y,11DEC2006,16MAR2007,29DEC2006,19,,Week 2,2,Hematocrit (%),HCT,29,HEMATOLOGY,41.7,41.7,44.3,44.3,Normal,Normal,8-22 DAYS,15,4,8,22,DAYS,,Y
BBC,BBC-10-146,146,10,135,ARM D,4,ARM D,4,Y,Y,Y,Y,11DEC2006,16MAR2007,25JAN2007,46,,Week 6,6,Hematocrit (%),HCT,29,HEMATOLOGY,42.8,42.8,44.3,44.3,Normal,Normal,37-50 DAYS,43,3,37,50,DAYS,,Y
BBC,BBC-10-146,146,10,136,ARM D,4,ARM D,4,Y,Y,Y,Y,11DEC2006,16MAR2007,16MAR2007,96,,Week 12,12,Hematocrit (%),HCT,29,HEMATOLOGY,45.9,45.9,44.3,44.3,Normal,Normal,72-99 DAYS,85,11,72,99,DAYS,,Y
BBC,BBC-10-146,146,10,162,ARM D,4,ARM D,4,Y,Y,Y,Y,11DEC2006,16MAR2007,29NOV2006,-12,,,,Ery. Mean Corpuscular Volume (fL),MCV,30,HEMATOLOGY,84.1,84.1,85.1,85.1,Normal,Normal,,,,,,,,
BBC,BBC-10-146,146,10,163,ARM D,4,ARM D,4,Y,Y,Y,Y,11DEC2006,16MAR2007,11DEC2006,1,,Day 1 Baseline,0,Ery. Mean Corpuscular Volume (fL),MCV,30,HEMATOLOGY,85.1,85.1,85.1,85.1,Normal,Normal,,,,,,,Y,Y
BBC,BBC-10-146,146,10,164,ARM D,4,ARM D,4,Y,Y,Y,Y,11DEC2006,16MAR2007,29DEC2006,19,,Week 2,2,Ery. Mean Corpuscular Volume (fL),MCV,30,HEMATOLOGY,84.8,84.8,85.1,85.1,Normal,Normal,8-22 DAYS,15,4,8,22,DAYS,,Y
BBC,BBC-10-146,146,10,165,ARM D,4,ARM D,4,Y,Y,Y,Y,11DEC2006,16MAR2007,25JAN2007,46,,Week 6,6,Ery. Mean Corpuscular Volume (fL),MCV,30,HEMATOLOGY,85.3,85.3,85.1,85.1,Normal,Normal,37-50 DAYS,43,3,37,50,DAYS,,Y
BBC,BBC-10-146,146,10,166,ARM D,4,ARM D,4,Y,Y,Y,Y,11DEC2006,16MAR2007,16MAR2007,96,,Week 12,12,Ery. Mean Corpuscular Volume (fL),MCV,30,HEMATOLOGY,85.9,85.9,85.1,85.1,Normal,Normal,72-99 DAYS,85,11,72,99,DAYS,,Y
BBC,BBC-10-146,146,10,152,ARM D,4,ARM D,4,Y,Y,Y,Y,11DEC2006,16MAR2007,29NOV2006,-12,,,,Ery. Mean Corpuscular Hemoglobin (pg),MCH,31,HEMATOLOGY,29.5,29.5,29.7,29.7,Normal,Normal,,,,,,,,
BBC,BBC-10-146,146,10,153,ARM D,4,ARM D,4,Y,Y,Y,Y,11DEC2006,16MAR2007,11DEC2006,1,,Day 1 Baseline,0,Ery. Mean Corpuscular Hemoglobin (pg),MCH,31,HEMATOLOGY,29.7,29.7,29.7,29.7,Normal,Normal,,,,,,,Y,Y
BBC,BBC-10-146,146,10,154,ARM D,4,ARM D,4,Y,Y,Y,Y,11DEC2006,16MAR2007,29DEC2006,19,,Week 2,2,Ery. Mean Corpuscular Hemoglobin (pg),MCH,31,HEMATOLOGY,29.2,29.2,29.7,29.7,Normal,Normal,8-22 DAYS,15,4,8,22,DAYS,,Y
BBC,BBC-10-146,146,10,155,ARM D,4,ARM D,4,Y,Y,Y,Y,11DEC2006,16MAR2007,25JAN2007,46,,Week 6,6,Ery. Mean Corpuscular Hemoglobin (pg),MCH,31,HEMATOLOGY,30.1,30.1,29.7,29.7,Normal,Normal,37-50 DAYS,43,3,37,50,DAYS,,Y
BBC,BBC-10-146,146,10,156,ARM D,4,ARM D,4,Y,Y,Y,Y,11DEC2006,16MAR2007,16MAR2007,96,,Week 12,12,Ery. Mean Corpuscular Hemoglobin (pg),MCH,31,HEMATOLOGY,30.3,30.3,29.7,29.7,Normal,Normal,72-99 DAYS,85,11,72,99,DAYS,,Y
BBC,BBC-10-146,146,10,157,ARM D,4,ARM D,4,Y,Y,Y,Y,11DEC2006,16MAR2007,29NOV2006,-12,,,,Ery. Mean Corpuscular HGB Concentration (g/dL),MCHC,32,HEMATOLOGY,35.1,35.1,34.9,34.9,Normal,Normal,,,,,,,,
BBC,BBC-10-146,146,10,158,ARM D,4,ARM D,4,Y,Y,Y,Y,11DEC2006,16MAR2007,11DEC2006,1,,Day 1 Baseline,0,Ery. Mean Corpuscular HGB Concentration (g/dL),MCHC,32,HEMATOLOGY,34.9,34.9,34.9,34.9,Normal,Normal,,,,,,,Y,Y
BBC,BBC-10-146,146,10,159,ARM D,4,ARM D,4,Y,Y,Y,Y,11DEC2006,16MAR2007,29DEC2006,19,,Week 2,2,Ery. Mean Corpuscular HGB Concentration (g/dL),MCHC,32,HEMATOLOGY,34.4,34.4,34.9,34.9,Normal,Normal,8-22 DAYS,15,4,8,22,DAYS,,Y
BBC,BBC-10-146,146,10,160,ARM D,4,ARM D,4,Y,Y,Y,Y,11DEC2006,16MAR2007,25JAN2007,46,,Week 6,6,Ery. Mean Corpuscular HGB Concentration (g/dL),MCHC,32,HEMATOLOGY,35.2,35.2,34.9,34.9,Normal,Normal,37-50 DAYS,43,3,37,50,DAYS,,Y
BBC,BBC-10-146,146,10,161,ARM D,4,ARM D,4,Y,Y,Y,Y,11DEC2006,16MAR2007,16MAR2007,96,,Week 12,12,Ery. Mean Corpuscular HGB Concentration (g/dL),MCHC,32,HEMATOLOGY,35.3,35.3,34.9,34.9,High,Normal,72-99 DAYS,85,11,72,99,DAYS,,Y
BBC,BBC-10-146,146,10,222,ARM D,4,ARM D,4,Y,Y,Y,Y,11DEC2006,16MAR2007,29NOV2006,-12,,,,Creatinine (mg/dL),CREACONC,33,URINALYSIS,107,107,27,27,,,,,,,,,,
BBC,BBC-10-146,146,10,223,ARM D,4,ARM D,4,Y,Y,Y,Y,11DEC2006,16MAR2007,11DEC2006,1,,Day 1 Baseline,0,Creatinine (mg/dL),CREACONC,33,URINALYSIS,27,27,27,27,,,,,,,,,Y,Y
BBC,BBC-10-146,146,10,224,ARM D,4,ARM D,4,Y,Y,Y,Y,11DEC2006,16MAR2007,29DEC2006,19,,Week 2,2,Creatinine (mg/dL),CREACONC,33,URINALYSIS,47,47,27,27,,,8-22 DAYS,15,4,8,22,DAYS,,Y
BBC,BBC-10-146,146,10,225,ARM D,4,ARM D,4,Y,Y,Y,Y,11DEC2006,16MAR2007,25JAN2007,46,,Week 6,6,Creatinine (mg/dL),CREACONC,33,URINALYSIS,81,81,27,27,,,37-50 DAYS,43,3,37,50,DAYS,,Y
BBC,BBC-10-146,146,10,226,ARM D,4,ARM D,4,Y,Y,Y,Y,11DEC2006,16MAR2007,16MAR2007,96,,Week 12,12,Creatinine (mg/dL),CREACONC,33,URINALYSIS,100,100,27,27,,,72-99 DAYS,85,11,72,99,DAYS,,Y
BBC,BBC-10-146,146,10,212,ARM D,4,ARM D,4,Y,Y,Y,Y,11DEC2006,16MAR2007,29NOV2006,-12,,,,Calcium (mg/L),CACONC,34,URINALYSIS,50,50.000000,20,20.000000,,,,,,,,,,
BBC,BBC-10-146,146,10,213,ARM D,4,ARM D,4,Y,Y,Y,Y,11DEC2006,16MAR2007,11DEC2006,1,,Day 1 Baseline,0,Calcium (mg/L),CACONC,34,URINALYSIS,20,20.000000,20,20.000000,,,,,,,,,Y,Y
BBC,BBC-10-146,146,10,214,ARM D,4,ARM D,4,Y,Y,Y,Y,11DEC2006,16MAR2007,29DEC2006,19,,Week 2,2,Calcium (mg/L),CACONC,34,URINALYSIS,48,48.000000,20,20.000000,,,8-22 DAYS,15,4,8,22,DAYS,,Y
BBC,BBC-10-146,146,10,215,ARM D,4,ARM D,4,Y,Y,Y,Y,11DEC2006,16MAR2007,25JAN2007,46,,Week 6,6,Calcium (mg/L),CACONC,34,URINALYSIS,46,46.000000,20,20.000000,,,37-50 DAYS,43,3,37,50,DAYS,,Y
BBC,BBC-10-146,146,10,216,ARM D,4,ARM D,4,Y,Y,Y,Y,11DEC2006,16MAR2007,16MAR2007,96,,Week 12,12,Calcium (mg/L),CACONC,34,URINALYSIS,113,113.000000,20,20.000000,,,72-99 DAYS,85,11,72,99,DAYS,,Y
BBC,BBC-10-146,146,10,217,ARM D,4,ARM D,4,Y,Y,Y,Y,11DEC2006,16MAR2007,29NOV2006,-12,,,,Calcium/Creatinine Ratio,CACREAT,35,URINALYSIS,0.05,0.05,0.07,0.07,,,,,,,,,,
BBC,BBC-10-146,146,10,218,ARM D,4,ARM D,4,Y,Y,Y,Y,11DEC2006,16MAR2007,11DEC2006,1,,Day 1 Baseline,0,Calcium/Creatinine Ratio,CACREAT,35,URINALYSIS,0.07,0.07,0.07,0.07,,,,,,,,,Y,Y
BBC,BBC-10-146,146,10,219,ARM D,4,ARM D,4,Y,Y,Y,Y,11DEC2006,16MAR2007,29DEC2006,19,,Week 2,2,Calcium/Creatinine Ratio,CACREAT,35,URINALYSIS,0.1,0.10,0.07,0.07,,,8-22 DAYS,15,4,8,22,DAYS,,Y
BBC,BBC-10-146,146,10,220,ARM D,4,ARM D,4,Y,Y,Y,Y,11DEC2006,16MAR2007,25JAN2007,46,,Week 6,6,Calcium/Creatinine Ratio,CACREAT,35,URINALYSIS,0.06,0.06,0.07,0.07,,,37-50 DAYS,43,3,37,50,DAYS,,Y
BBC,BBC-10-146,146,10,221,ARM D,4,ARM D,4,Y,Y,Y,Y,11DEC2006,16MAR2007,16MAR2007,96,,Week 12,12,Calcium/Creatinine Ratio,CACREAT,35,URINALYSIS,0.11,0.11,0.07,0.07,,,72-99 DAYS,85,11,72,99,DAYS,,Y
BBC,BBC-10-146,146,10,260,ARM D,4,ARM D,4,Y,Y,Y,Y,11DEC2006,16MAR2007,29NOV2006,-12,,,,Phosphate Concentration (mg/dL),PHOSCONC,36,URINALYSIS,69,69.0,20,20.0,,,,,,,,,,
BBC,BBC-10-146,146,10,261,ARM D,4,ARM D,4,Y,Y,Y,Y,11DEC2006,16MAR2007,11DEC2006,1,,Day 1 Baseline,0,Phosphate Concentration (mg/dL),PHOSCONC,36,URINALYSIS,20,20.0,20,20.0,,,,,,,,,Y,Y
BBC,BBC-10-146,146,10,262,ARM D,4,ARM D,4,Y,Y,Y,Y,11DEC2006,16MAR2007,29DEC2006,19,,Week 2,2,Phosphate Concentration (mg/dL),PHOSCONC,36,URINALYSIS,32,32.0,20,20.0,,,8-22 DAYS,15,4,8,22,DAYS,,Y
BBC,BBC-10-146,146,10,263,ARM D,4,ARM D,4,Y,Y,Y,Y,11DEC2006,16MAR2007,25JAN2007,46,,Week 6,6,Phosphate Concentration (mg/dL),PHOSCONC,36,URINALYSIS,51,51.0,20,20.0,,,37-50 DAYS,43,3,37,50,DAYS,,Y
BBC,BBC-10-146,146,10,264,ARM D,4,ARM D,4,Y,Y,Y,Y,11DEC2006,16MAR2007,16MAR2007,96,,Week 12,12,Phosphate Concentration (mg/dL),PHOSCONC,36,URINALYSIS,51,51.0,20,20.0,,,72-99 DAYS,85,11,72,99,DAYS,,Y
BBC,BBC-10-146,146,10,95,ARM D,4,ARM D,4,Y,Y,Y,Y,11DEC2006,16MAR2007,11DEC2006,1,,Day 1 Baseline,0,"Parathyroid Hormone, PTH (pmol/L)",PTHI,37,ENDOCRINE,6.3,6.3,6.3,6.3,Normal,Normal,,,,,,,Y,Y
BBC,BBC-10-146,146,10,97,ARM D,4,ARM D,4,Y,Y,Y,Y,11DEC2006,16MAR2007,25JAN2007,46,,Week 6,6,"Parathyroid Hormone, PTH (pmol/L)",PTHI,37,ENDOCRINE,3.3,3.3,6.3,6.3,Normal,Normal,37-50 DAYS,43,3,37,50,DAYS,,Y
BBC,BBC-10-146,146,10,99,ARM D,4,ARM D,4,Y,Y,Y,Y,11DEC2006,16MAR2007,16MAR2007,96,,Week 12,12,"Parathyroid Hormone, PTH (pmol/L)",PTHI,37,ENDOCRINE,3.8,3.8,6.3,6.3,Normal,Normal,72-99 DAYS,85,11,72,99,DAYS,,Y
BBC,BBC-10-146,146,10,109,ARM D,4,ARM D,4,Y,Y,Y,Y,11DEC2006,16MAR2007,11DEC2006,1,,Day 1 Baseline,0,25-Hydroxyvitamin D3 (ug/L),VITDIT3,38,ENDOCRINE,32,32.0,32,32.0,,,,,,,,,Y,Y
BBC,BBC-10-146,146,10,110,ARM D,4,ARM D,4,Y,Y,Y,Y,11DEC2006,16MAR2007,25JAN2007,46,,Week 6,6,25-Hydroxyvitamin D3 (ug/L),VITDIT3,38,ENDOCRINE,21,21.0,32,32.0,,,37-50 DAYS,43,3,37,50,DAYS,,Y
BBC,BBC-10-146,146,10,111,ARM D,4,ARM D,4,Y,Y,Y,Y,11DEC2006,16MAR2007,16MAR2007,96,,Week 12,12,25-Hydroxyvitamin D3 (ug/L),VITDIT3,38,ENDOCRINE,23,23.0,32,32.0,,,72-99 DAYS,85,11,72,99,DAYS,,Y
BBC,BBC-10-146,146,10,91,ARM D,4,ARM D,4,Y,Y,Y,Y,11DEC2006,16MAR2007,11DEC2006,1,,Day 1 Baseline,0,Osteocalcin (ug/L),OSTEOC,39,ENDOCRINE,15.2,15.2,15.2,15.2,,,,,,,,,Y,Y
BBC,BBC-10-146,146,10,92,ARM D,4,ARM D,4,Y,Y,Y,Y,11DEC2006,16MAR2007,25JAN2007,46,,Week 6,6,Osteocalcin (ug/L),OSTEOC,39,ENDOCRINE,15.2,15.2,15.2,15.2,,,37-50 DAYS,43,3,37,50,DAYS,,Y
BBC,BBC-10-146,146,10,93,ARM D,4,ARM D,4,Y,Y,Y,Y,11DEC2006,16MAR2007,16MAR2007,96,,Week 12,12,Osteocalcin (ug/L),OSTEOC,39,ENDOCRINE,14.8,14.8,15.2,15.2,,,72-99 DAYS,85,11,72,99,DAYS,,Y
BBC,BBC-10-146,146,10,100,ARM D,4,ARM D,4,Y,Y,Y,Y,11DEC2006,16MAR2007,11DEC2006,1,,Day 1 Baseline,0,"1, 25-Dihydroxyvitamin D (pmol/L)",VITDAT,40,ENDOCRINE,5.57,5.57,5.57,5.57,Normal,Normal,,,,,,,Y,Y
BBC,BBC-10-146,146,10,101,ARM D,4,ARM D,4,Y,Y,Y,Y,11DEC2006,16MAR2007,25JAN2007,46,,Week 6,6,"1, 25-Dihydroxyvitamin D (pmol/L)",VITDAT,40,ENDOCRINE,5.67,5.67,5.57,5.57,Normal,Normal,37-50 DAYS,43,3,37,50,DAYS,,Y
BBC,BBC-10-146,146,10,102,ARM D,4,ARM D,4,Y,Y,Y,Y,11DEC2006,16MAR2007,16MAR2007,96,,Week 12,12,"1, 25-Dihydroxyvitamin D (pmol/L)",VITDAT,40,ENDOCRINE,5.88,5.88,5.57,5.57,Normal,Normal,72-99 DAYS,85,11,72,99,DAYS,,Y
BBC,BBC-10-147,147,10,31,ARM C,3,ARM C,3,Y,Y,Y,Y,12DEC2006,18MAR2007,01DEC2006,-11,,,,Total Calcium (mg/dL),CA,1,CHEMISTRY,10.1,10.1,10.3,10.3,Normal,High,,,,,,,,
BBC,BBC-10-147,147,10,32,ARM C,3,ARM C,3,Y,Y,Y,Y,12DEC2006,18MAR2007,12DEC2006,1,,Day 1 Baseline,0,Total Calcium (mg/dL),CA,1,CHEMISTRY,10.3,10.3,10.3,10.3,High,High,,,,,,,Y,Y
BBC,BBC-10-147,147,10,33,ARM C,3,ARM C,3,Y,Y,Y,Y,12DEC2006,18MAR2007,28DEC2006,17,,Week 2,2,Total Calcium (mg/dL),CA,1,CHEMISTRY,10,10.0,10.3,10.3,Normal,High,8-22 DAYS,15,2,8,22,DAYS,,Y
BBC,BBC-10-147,147,10,34,ARM C,3,ARM C,3,Y,Y,Y,Y,12DEC2006,18MAR2007,25JAN2007,45,,Week 6,6,Total Calcium (mg/dL),CA,1,CHEMISTRY,10.2,10.2,10.3,10.3,High,High,37-50 DAYS,43,2,37,50,DAYS,,Y
BBC,BBC-10-147,147,10,35,ARM C,3,ARM C,3,Y,Y,Y,Y,12DEC2006,18MAR2007,19MAR2007,98,,Week 12,12,Total Calcium (mg/dL),CA,1,CHEMISTRY,9.3,9.3,10.3,10.3,Normal,High,72-99 DAYS,85,13,72,99,DAYS,,Y
BBC,BBC-10-147,147,10,56,ARM C,3,ARM C,3,Y,Y,Y,Y,12DEC2006,18MAR2007,01DEC2006,-11,,,,Potassium (mmol/L),K,2,CHEMISTRY,3.8,3.8,4.4,4.4,Normal,Normal,,,,,,,,
BBC,BBC-10-147,147,10,57,ARM C,3,ARM C,3,Y,Y,Y,Y,12DEC2006,18MAR2007,12DEC2006,1,,Day 1 Baseline,0,Potassium (mmol/L),K,2,CHEMISTRY,4.4,4.4,4.4,4.4,Normal,Normal,,,,,,,Y,Y
BBC,BBC-10-147,147,10,58,ARM C,3,ARM C,3,Y,Y,Y,Y,12DEC2006,18MAR2007,28DEC2006,17,,Week 2,2,Potassium (mmol/L),K,2,CHEMISTRY,4,4.0,4.4,4.4,Normal,Normal,8-22 DAYS,15,2,8,22,DAYS,,Y
BBC,BBC-10-147,147,10,59,ARM C,3,ARM C,3,Y,Y,Y,Y,12DEC2006,18MAR2007,25JAN2007,45,,Week 6,6,Potassium (mmol/L),K,2,CHEMISTRY,3.8,3.8,4.4,4.4,Normal,Normal,37-50 DAYS,43,2,37,50,DAYS,,Y
BBC,BBC-10-147,147,10,60,ARM C,3,ARM C,3,Y,Y,Y,Y,12DEC2006,18MAR2007,19MAR2007,98,,Week 12,12,Potassium (mmol/L),K,2,CHEMISTRY,4,4.0,4.4,4.4,Normal,Normal,72-99 DAYS,85,13,72,99,DAYS,,Y
BBC,BBC-10-147,147,10,41,ARM C,3,ARM C,3,Y,Y,Y,Y,12DEC2006,18MAR2007,01DEC2006,-11,,,,Chloride (mmol/L),CL,3,CHEMISTRY,104,104,101,101,Normal,Normal,,,,,,,,
BBC,BBC-10-147,147,10,42,ARM C,3,ARM C,3,Y,Y,Y,Y,12DEC2006,18MAR2007,12DEC2006,1,,Day 1 Baseline,0,Chloride (mmol/L),CL,3,CHEMISTRY,101,101,101,101,Normal,Normal,,,,,,,Y,Y
BBC,BBC-10-147,147,10,43,ARM C,3,ARM C,3,Y,Y,Y,Y,12DEC2006,18MAR2007,28DEC2006,17,,Week 2,2,Chloride (mmol/L),CL,3,CHEMISTRY,104,104,101,101,Normal,Normal,8-22 DAYS,15,2,8,22,DAYS,,Y
BBC,BBC-10-147,147,10,44,ARM C,3,ARM C,3,Y,Y,Y,Y,12DEC2006,18MAR2007,25JAN2007,45,,Week 6,6,Chloride (mmol/L),CL,3,CHEMISTRY,103,103,101,101,Normal,Normal,37-50 DAYS,43,2,37,50,DAYS,,Y
BBC,BBC-10-147,147,10,45,ARM C,3,ARM C,3,Y,Y,Y,Y,12DEC2006,18MAR2007,19MAR2007,98,,Week 12,12,Chloride (mmol/L),CL,3,CHEMISTRY,106,106,101,101,Normal,Normal,72-99 DAYS,85,13,72,99,DAYS,,Y
BBC,BBC-10-147,147,10,21,ARM C,3,ARM C,3,Y,Y,Y,Y,12DEC2006,18MAR2007,01DEC2006,-11,,,,Total Bilirubin (mg/dL),BILI,4,CHEMISTRY,0.7,0.7,0.6,0.6,Normal,Normal,,,,,,,,
BBC,BBC-10-147,147,10,22,ARM C,3,ARM C,3,Y,Y,Y,Y,12DEC2006,18MAR2007,12DEC2006,1,,Day 1 Baseline,0,Total Bilirubin (mg/dL),BILI,4,CHEMISTRY,0.6,0.6,0.6,0.6,Normal,Normal,,,,,,,Y,Y
BBC,BBC-10-147,147,10,23,ARM C,3,ARM C,3,Y,Y,Y,Y,12DEC2006,18MAR2007,28DEC2006,17,,Week 2,2,Total Bilirubin (mg/dL),BILI,4,CHEMISTRY,0.6,0.6,0.6,0.6,Normal,Normal,8-22 DAYS,15,2,8,22,DAYS,,Y
BBC,BBC-10-147,147,10,24,ARM C,3,ARM C,3,Y,Y,Y,Y,12DEC2006,18MAR2007,25JAN2007,45,,Week 6,6,Total Bilirubin (mg/dL),BILI,4,CHEMISTRY,0.8,0.8,0.6,0.6,Normal,Normal,37-50 DAYS,43,2,37,50,DAYS,,Y
BBC,BBC-10-147,147,10,25,ARM C,3,ARM C,3,Y,Y,Y,Y,12DEC2006,18MAR2007,19MAR2007,98,,Week 12,12,Total Bilirubin (mg/dL),BILI,4,CHEMISTRY,0.4,0.4,0.6,0.6,Normal,Normal,72-99 DAYS,85,13,72,99,DAYS,,Y
BBC,BBC-10-147,147,10,76,ARM C,3,ARM C,3,Y,Y,Y,Y,12DEC2006,18MAR2007,01DEC2006,-11,,,,Sodium (mmol/L),SODIUM,5,CHEMISTRY,142,142,138,138,Normal,Normal,,,,,,,,
BBC,BBC-10-147,147,10,77,ARM C,3,ARM C,3,Y,Y,Y,Y,12DEC2006,18MAR2007,12DEC2006,1,,Day 1 Baseline,0,Sodium (mmol/L),SODIUM,5,CHEMISTRY,138,138,138,138,Normal,Normal,,,,,,,Y,Y
BBC,BBC-10-147,147,10,78,ARM C,3,ARM C,3,Y,Y,Y,Y,12DEC2006,18MAR2007,28DEC2006,17,,Week 2,2,Sodium (mmol/L),SODIUM,5,CHEMISTRY,141,141,138,138,Normal,Normal,8-22 DAYS,15,2,8,22,DAYS,,Y
BBC,BBC-10-147,147,10,79,ARM C,3,ARM C,3,Y,Y,Y,Y,12DEC2006,18MAR2007,25JAN2007,45,,Week 6,6,Sodium (mmol/L),SODIUM,5,CHEMISTRY,140,140,138,138,Normal,Normal,37-50 DAYS,43,2,37,50,DAYS,,Y
BBC,BBC-10-147,147,10,80,ARM C,3,ARM C,3,Y,Y,Y,Y,12DEC2006,18MAR2007,19MAR2007,98,,Week 12,12,Sodium (mmol/L),SODIUM,5,CHEMISTRY,141,141,138,138,Normal,Normal,72-99 DAYS,85,13,72,99,DAYS,,Y
BBC,BBC-10-147,147,10,16,ARM C,3,ARM C,3,Y,Y,Y,Y,12DEC2006,18MAR2007,01DEC2006,-11,,,,"Aspartate Aminotransferase, AST (U/L)",AST,6,CHEMISTRY,22,22,24,24,Normal,Normal,,,,,,,,
BBC,BBC-10-147,147,10,17,ARM C,3,ARM C,3,Y,Y,Y,Y,12DEC2006,18MAR2007,12DEC2006,1,,Day 1 Baseline,0,"Aspartate Aminotransferase, AST (U/L)",AST,6,CHEMISTRY,24,24,24,24,Normal,Normal,,,,,,,Y,Y
BBC,BBC-10-147,147,10,18,ARM C,3,ARM C,3,Y,Y,Y,Y,12DEC2006,18MAR2007,28DEC2006,17,,Week 2,2,"Aspartate Aminotransferase, AST (U/L)",AST,6,CHEMISTRY,24,24,24,24,Normal,Normal,8-22 DAYS,15,2,8,22,DAYS,,Y
BBC,BBC-10-147,147,10,19,ARM C,3,ARM C,3,Y,Y,Y,Y,12DEC2006,18MAR2007,25JAN2007,45,,Week 6,6,"Aspartate Aminotransferase, AST (U/L)",AST,6,CHEMISTRY,27,27,24,24,Normal,Normal,37-50 DAYS,43,2,37,50,DAYS,,Y
BBC,BBC-10-147,147,10,20,ARM C,3,ARM C,3,Y,Y,Y,Y,12DEC2006,18MAR2007,19MAR2007,98,,Week 12,12,"Aspartate Aminotransferase, AST (U/L)",AST,6,CHEMISTRY,18,18,24,24,Normal,Normal,72-99 DAYS,85,13,72,99,DAYS,,Y
BBC,BBC-10-147,147,10,11,ARM C,3,ARM C,3,Y,Y,Y,Y,12DEC2006,18MAR2007,01DEC2006,-11,,,,"Alanine Aminotransferase, ALT (U/L)",ALT,7,CHEMISTRY,40,40,36,36,Normal,Normal,,,,,,,,
BBC,BBC-10-147,147,10,12,ARM C,3,ARM C,3,Y,Y,Y,Y,12DEC2006,18MAR2007,12DEC2006,1,,Day 1 Baseline,0,"Alanine Aminotransferase, ALT (U/L)",ALT,7,CHEMISTRY,36,36,36,36,Normal,Normal,,,,,,,Y,Y
BBC,BBC-10-147,147,10,13,ARM C,3,ARM C,3,Y,Y,Y,Y,12DEC2006,18MAR2007,28DEC2006,17,,Week 2,2,"Alanine Aminotransferase, ALT (U/L)",ALT,7,CHEMISTRY,35,35,36,36,Normal,Normal,8-22 DAYS,15,2,8,22,DAYS,,Y
BBC,BBC-10-147,147,10,14,ARM C,3,ARM C,3,Y,Y,Y,Y,12DEC2006,18MAR2007,25JAN2007,45,,Week 6,6,"Alanine Aminotransferase, ALT (U/L)",ALT,7,CHEMISTRY,41,41,36,36,Normal,Normal,37-50 DAYS,43,2,37,50,DAYS,,Y
BBC,BBC-10-147,147,10,15,ARM C,3,ARM C,3,Y,Y,Y,Y,12DEC2006,18MAR2007,19MAR2007,98,,Week 12,12,"Alanine Aminotransferase, ALT (U/L)",ALT,7,CHEMISTRY,26,26,36,36,Normal,Normal,72-99 DAYS,85,13,72,99,DAYS,,Y
BBC,BBC-10-147,147,10,26,ARM C,3,ARM C,3,Y,Y,Y,Y,12DEC2006,18MAR2007,01DEC2006,-11,,,,"Blood Urea Nitrogen, BUN (mg/dL)",BUN,8,CHEMISTRY,20,20,13,13,Normal,Normal,,,,,,,,
BBC,BBC-10-147,147,10,27,ARM C,3,ARM C,3,Y,Y,Y,Y,12DEC2006,18MAR2007,12DEC2006,1,,Day 1 Baseline,0,"Blood Urea Nitrogen, BUN (mg/dL)",BUN,8,CHEMISTRY,13,13,13,13,Normal,Normal,,,,,,,Y,Y
BBC,BBC-10-147,147,10,28,ARM C,3,ARM C,3,Y,Y,Y,Y,12DEC2006,18MAR2007,28DEC2006,17,,Week 2,2,"Blood Urea Nitrogen, BUN (mg/dL)",BUN,8,CHEMISTRY,17,17,13,13,Normal,Normal,8-22 DAYS,15,2,8,22,DAYS,,Y
BBC,BBC-10-147,147,10,29,ARM C,3,ARM C,3,Y,Y,Y,Y,12DEC2006,18MAR2007,25JAN2007,45,,Week 6,6,"Blood Urea Nitrogen, BUN (mg/dL)",BUN,8,CHEMISTRY,14,14,13,13,Normal,Normal,37-50 DAYS,43,2,37,50,DAYS,,Y
BBC,BBC-10-147,147,10,30,ARM C,3,ARM C,3,Y,Y,Y,Y,12DEC2006,18MAR2007,19MAR2007,98,,Week 12,12,"Blood Urea Nitrogen, BUN (mg/dL)",BUN,8,CHEMISTRY,14,14,13,13,Normal,Normal,72-99 DAYS,85,13,72,99,DAYS,,Y
BBC,BBC-10-147,147,10,51,ARM C,3,ARM C,3,Y,Y,Y,Y,12DEC2006,18MAR2007,01DEC2006,-11,,,,Glucose (mg/dL),GLUC,9,CHEMISTRY,69,69,98,98,Low,Normal,,,,,,,,
BBC,BBC-10-147,147,10,52,ARM C,3,ARM C,3,Y,Y,Y,Y,12DEC2006,18MAR2007,12DEC2006,1,,Day 1 Baseline,0,Glucose (mg/dL),GLUC,9,CHEMISTRY,98,98,98,98,Normal,Normal,,,,,,,Y,Y
BBC,BBC-10-147,147,10,53,ARM C,3,ARM C,3,Y,Y,Y,Y,12DEC2006,18MAR2007,28DEC2006,17,,Week 2,2,Glucose (mg/dL),GLUC,9,CHEMISTRY,101,101,98,98,High,Normal,8-22 DAYS,15,2,8,22,DAYS,,Y
BBC,BBC-10-147,147,10,54,ARM C,3,ARM C,3,Y,Y,Y,Y,12DEC2006,18MAR2007,25JAN2007,45,,Week 6,6,Glucose (mg/dL),GLUC,9,CHEMISTRY,86,86,98,98,Normal,Normal,37-50 DAYS,43,2,37,50,DAYS,,Y
BBC,BBC-10-147,147,10,55,ARM C,3,ARM C,3,Y,Y,Y,Y,12DEC2006,18MAR2007,19MAR2007,98,,Week 12,12,Glucose (mg/dL),GLUC,9,CHEMISTRY,101,101,98,98,High,Normal,72-99 DAYS,85,13,72,99,DAYS,,Y
BBC,BBC-10-147,147,10,6,ARM C,3,ARM C,3,Y,Y,Y,Y,12DEC2006,18MAR2007,01DEC2006,-11,,,,Alkaline Phosphatase (U/L),ALP,10,CHEMISTRY,78,78,73,73,Normal,Normal,,,,,,,,
BBC,BBC-10-147,147,10,7,ARM C,3,ARM C,3,Y,Y,Y,Y,12DEC2006,18MAR2007,12DEC2006,1,,Day 1 Baseline,0,Alkaline Phosphatase (U/L),ALP,10,CHEMISTRY,73,73,73,73,Normal,Normal,,,,,,,Y,Y
BBC,BBC-10-147,147,10,8,ARM C,3,ARM C,3,Y,Y,Y,Y,12DEC2006,18MAR2007,28DEC2006,17,,Week 2,2,Alkaline Phosphatase (U/L),ALP,10,CHEMISTRY,69,69,73,73,Normal,Normal,8-22 DAYS,15,2,8,22,DAYS,,Y
BBC,BBC-10-147,147,10,9,ARM C,3,ARM C,3,Y,Y,Y,Y,12DEC2006,18MAR2007,25JAN2007,45,,Week 6,6,Alkaline Phosphatase (U/L),ALP,10,CHEMISTRY,72,72,73,73,Normal,Normal,37-50 DAYS,43,2,37,50,DAYS,,Y
BBC,BBC-10-147,147,10,10,ARM C,3,ARM C,3,Y,Y,Y,Y,12DEC2006,18MAR2007,19MAR2007,98,,Week 12,12,Alkaline Phosphatase (U/L),ALP,10,CHEMISTRY,68,68,73,73,Normal,Normal,72-99 DAYS,85,13,72,99,DAYS,,Y
BBC,BBC-10-147,147,10,86,ARM C,3,ARM C,3,Y,Y,Y,Y,12DEC2006,18MAR2007,01DEC2006,-11,,,,Uric Acid (mg/dL),URATE,11,CHEMISTRY,7.7,7.7,6,6.0,Normal,Normal,,,,,,,,
BBC,BBC-10-147,147,10,87,ARM C,3,ARM C,3,Y,Y,Y,Y,12DEC2006,18MAR2007,12DEC2006,1,,Day 1 Baseline,0,Uric Acid (mg/dL),URATE,11,CHEMISTRY,6,6.0,6,6.0,Normal,Normal,,,,,,,Y,Y
BBC,BBC-10-147,147,10,88,ARM C,3,ARM C,3,Y,Y,Y,Y,12DEC2006,18MAR2007,28DEC2006,17,,Week 2,2,Uric Acid (mg/dL),URATE,11,CHEMISTRY,6.4,6.4,6,6.0,Normal,Normal,8-22 DAYS,15,2,8,22,DAYS,,Y
BBC,BBC-10-147,147,10,89,ARM C,3,ARM C,3,Y,Y,Y,Y,12DEC2006,18MAR2007,25JAN2007,45,,Week 6,6,Uric Acid (mg/dL),URATE,11,CHEMISTRY,7.2,7.2,6,6.0,Normal,Normal,37-50 DAYS,43,2,37,50,DAYS,,Y
BBC,BBC-10-147,147,10,90,ARM C,3,ARM C,3,Y,Y,Y,Y,12DEC2006,18MAR2007,19MAR2007,98,,Week 12,12,Uric Acid (mg/dL),URATE,11,CHEMISTRY,6.5,6.5,6,6.0,Normal,Normal,72-99 DAYS,85,13,72,99,DAYS,,Y
BBC,BBC-10-147,147,10,66,ARM C,3,ARM C,3,Y,Y,Y,Y,12DEC2006,18MAR2007,01DEC2006,-11,,,,Inorganic Phosphorus (mg/dL),PHOS,12,CHEMISTRY,2.6,2.6,4,4.0,Normal,Normal,,,,,,,,
BBC,BBC-10-147,147,10,67,ARM C,3,ARM C,3,Y,Y,Y,Y,12DEC2006,18MAR2007,12DEC2006,1,,Day 1 Baseline,0,Inorganic Phosphorus (mg/dL),PHOS,12,CHEMISTRY,4,4.0,4,4.0,Normal,Normal,,,,,,,Y,Y
BBC,BBC-10-147,147,10,68,ARM C,3,ARM C,3,Y,Y,Y,Y,12DEC2006,18MAR2007,28DEC2006,17,,Week 2,2,Inorganic Phosphorus (mg/dL),PHOS,12,CHEMISTRY,3.7,3.7,4,4.0,Normal,Normal,8-22 DAYS,15,2,8,22,DAYS,,Y
BBC,BBC-10-147,147,10,69,ARM C,3,ARM C,3,Y,Y,Y,Y,12DEC2006,18MAR2007,25JAN2007,45,,Week 6,6,Inorganic Phosphorus (mg/dL),PHOS,12,CHEMISTRY,3.1,3.1,4,4.0,Normal,Normal,37-50 DAYS,43,2,37,50,DAYS,,Y
BBC,BBC-10-147,147,10,70,ARM C,3,ARM C,3,Y,Y,Y,Y,12DEC2006,18MAR2007,19MAR2007,98,,Week 12,12,Inorganic Phosphorus (mg/dL),PHOS,12,CHEMISTRY,2.7,2.7,4,4.0,Normal,Normal,72-99 DAYS,85,13,72,99,DAYS,,Y
BBC,BBC-10-147,147,10,1,ARM C,3,ARM C,3,Y,Y,Y,Y,12DEC2006,18MAR2007,01DEC2006,-11,,,,Albumin (g/dL),ALB,13,CHEMISTRY,5,5.0,4.7,4.7,Normal,Normal,,,,,,,,
BBC,BBC-10-147,147,10,2,ARM C,3,ARM C,3,Y,Y,Y,Y,12DEC2006,18MAR2007,12DEC2006,1,,Day 1 Baseline,0,Albumin (g/dL),ALB,13,CHEMISTRY,4.7,4.7,4.7,4.7,Normal,Normal,,,,,,,Y,Y
BBC,BBC-10-147,147,10,3,ARM C,3,ARM C,3,Y,Y,Y,Y,12DEC2006,18MAR2007,28DEC2006,17,,Week 2,2,Albumin (g/dL),ALB,13,CHEMISTRY,4.6,4.6,4.7,4.7,Normal,Normal,8-22 DAYS,15,2,8,22,DAYS,,Y
BBC,BBC-10-147,147,10,4,ARM C,3,ARM C,3,Y,Y,Y,Y,12DEC2006,18MAR2007,25JAN2007,45,,Week 6,6,Albumin (g/dL),ALB,13,CHEMISTRY,4.8,4.8,4.7,4.7,Normal,Normal,37-50 DAYS,43,2,37,50,DAYS,,Y
BBC,BBC-10-147,147,10,5,ARM C,3,ARM C,3,Y,Y,Y,Y,12DEC2006,18MAR2007,19MAR2007,98,,Week 12,12,Albumin (g/dL),ALB,13,CHEMISTRY,4.4,4.4,4.7,4.7,Normal,Normal,72-99 DAYS,85,13,72,99,DAYS,,Y
BBC,BBC-10-147,147,10,71,ARM C,3,ARM C,3,Y,Y,Y,Y,12DEC2006,18MAR2007,01DEC2006,-11,,,,Total Protein (g/dL),PROT,14,CHEMISTRY,8.1,8.1,7.8,7.8,High,Normal,,,,,,,,
BBC,BBC-10-147,147,10,72,ARM C,3,ARM C,3,Y,Y,Y,Y,12DEC2006,18MAR2007,12DEC2006,1,,Day 1 Baseline,0,Total Protein (g/dL),PROT,14,CHEMISTRY,7.8,7.8,7.8,7.8,Normal,Normal,,,,,,,Y,Y
BBC,BBC-10-147,147,10,73,ARM C,3,ARM C,3,Y,Y,Y,Y,12DEC2006,18MAR2007,28DEC2006,17,,Week 2,2,Total Protein (g/dL),PROT,14,CHEMISTRY,7.5,7.5,7.8,7.8,Normal,Normal,8-22 DAYS,15,2,8,22,DAYS,,Y
BBC,BBC-10-147,147,10,74,ARM C,3,ARM C,3,Y,Y,Y,Y,12DEC2006,18MAR2007,25JAN2007,45,,Week 6,6,Total Protein (g/dL),PROT,14,CHEMISTRY,8,8.0,7.8,7.8,High,Normal,37-50 DAYS,43,2,37,50,DAYS,,Y
BBC,BBC-10-147,147,10,75,ARM C,3,ARM C,3,Y,Y,Y,Y,12DEC2006,18MAR2007,19MAR2007,98,,Week 12,12,Total Protein (g/dL),PROT,14,CHEMISTRY,7.1,7.1,7.8,7.8,Normal,Normal,72-99 DAYS,85,13,72,99,DAYS,,Y
BBC,BBC-10-147,147,10,61,ARM C,3,ARM C,3,Y,Y,Y,Y,12DEC2006,18MAR2007,01DEC2006,-11,,,,Lipase (U/L),LIPASE,15,CHEMISTRY,51,51,84,84,Normal,High,,,,,,,,
BBC,BBC-10-147,147,10,62,ARM C,3,ARM C,3,Y,Y,Y,Y,12DEC2006,18MAR2007,12DEC2006,1,,Day 1 Baseline,0,Lipase (U/L),LIPASE,15,CHEMISTRY,84,84,84,84,High,High,,,,,,,Y,Y
BBC,BBC-10-147,147,10,63,ARM C,3,ARM C,3,Y,Y,Y,Y,12DEC2006,18MAR2007,28DEC2006,17,,Week 2,2,Lipase (U/L),LIPASE,15,CHEMISTRY,41,41,84,84,Normal,High,8-22 DAYS,15,2,8,22,DAYS,,Y
BBC,BBC-10-147,147,10,64,ARM C,3,ARM C,3,Y,Y,Y,Y,12DEC2006,18MAR2007,25JAN2007,45,,Week 6,6,Lipase (U/L),LIPASE,15,CHEMISTRY,59,59,84,84,Normal,High,37-50 DAYS,43,2,37,50,DAYS,,Y
BBC,BBC-10-147,147,10,65,ARM C,3,ARM C,3,Y,Y,Y,Y,12DEC2006,18MAR2007,19MAR2007,98,,Week 12,12,Lipase (U/L),LIPASE,15,CHEMISTRY,42,42,84,84,Normal,High,72-99 DAYS,85,13,72,99,DAYS,,Y
BBC,BBC-10-147,147,10,36,ARM C,3,ARM C,3,Y,Y,Y,Y,12DEC2006,18MAR2007,01DEC2006,-11,,,,Total Cholesterol (mg/dL),CHOL,16,CHEMISTRY,286,286,254,254,High,High,,,,,,,,
BBC,BBC-10-147,147,10,37,ARM C,3,ARM C,3,Y,Y,Y,Y,12DEC2006,18MAR2007,12DEC2006,1,,Day 1 Baseline,0,Total Cholesterol (mg/dL),CHOL,16,CHEMISTRY,254,254,254,254,High,High,,,,,,,Y,Y
BBC,BBC-10-147,147,10,38,ARM C,3,ARM C,3,Y,Y,Y,Y,12DEC2006,18MAR2007,28DEC2006,17,,Week 2,2,Total Cholesterol (mg/dL),CHOL,16,CHEMISTRY,243,243,254,254,High,High,8-22 DAYS,15,2,8,22,DAYS,,Y
BBC,BBC-10-147,147,10,39,ARM C,3,ARM C,3,Y,Y,Y,Y,12DEC2006,18MAR2007,25JAN2007,45,,Week 6,6,Total Cholesterol (mg/dL),CHOL,16,CHEMISTRY,291,291,254,254,High,High,37-50 DAYS,43,2,37,50,DAYS,,Y
BBC,BBC-10-147,147,10,40,ARM C,3,ARM C,3,Y,Y,Y,Y,12DEC2006,18MAR2007,19MAR2007,98,,Week 12,12,Total Cholesterol (mg/dL),CHOL,16,CHEMISTRY,224,224,254,254,Normal,High,72-99 DAYS,85,13,72,99,DAYS,,Y
BBC,BBC-10-147,147,10,81,ARM C,3,ARM C,3,Y,Y,Y,Y,12DEC2006,18MAR2007,01DEC2006,-11,,,,Triglycerides (mg/dL),TRIG,17,CHEMISTRY,197,197,261,261,Normal,High,,,,,,,,
BBC,BBC-10-147,147,10,82,ARM C,3,ARM C,3,Y,Y,Y,Y,12DEC2006,18MAR2007,12DEC2006,1,,Day 1 Baseline,0,Triglycerides (mg/dL),TRIG,17,CHEMISTRY,261,261,261,261,High,High,,,,,,,Y,Y
BBC,BBC-10-147,147,10,83,ARM C,3,ARM C,3,Y,Y,Y,Y,12DEC2006,18MAR2007,28DEC2006,17,,Week 2,2,Triglycerides (mg/dL),TRIG,17,CHEMISTRY,225,225,261,261,High,High,8-22 DAYS,15,2,8,22,DAYS,,Y
BBC,BBC-10-147,147,10,84,ARM C,3,ARM C,3,Y,Y,Y,Y,12DEC2006,18MAR2007,25JAN2007,45,,Week 6,6,Triglycerides (mg/dL),TRIG,17,CHEMISTRY,178,178,261,261,Normal,High,37-50 DAYS,43,2,37,50,DAYS,,Y
BBC,BBC-10-147,147,10,85,ARM C,3,ARM C,3,Y,Y,Y,Y,12DEC2006,18MAR2007,19MAR2007,98,,Week 12,12,Triglycerides (mg/dL),TRIG,17,CHEMISTRY,156,156,261,261,Normal,High,72-99 DAYS,85,13,72,99,DAYS,,Y
BBC,BBC-10-147,147,10,46,ARM C,3,ARM C,3,Y,Y,Y,Y,12DEC2006,18MAR2007,01DEC2006,-11,,,,Creatinine (mg/dL),CREAT,18,CHEMISTRY,1.2,1.2,1.1,1.1,Normal,Normal,,,,,,,,
BBC,BBC-10-147,147,10,47,ARM C,3,ARM C,3,Y,Y,Y,Y,12DEC2006,18MAR2007,12DEC2006,1,,Day 1 Baseline,0,Creatinine (mg/dL),CREAT,18,CHEMISTRY,1.1,1.1,1.1,1.1,Normal,Normal,,,,,,,Y,Y
BBC,BBC-10-147,147,10,48,ARM C,3,ARM C,3,Y,Y,Y,Y,12DEC2006,18MAR2007,28DEC2006,17,,Week 2,2,Creatinine (mg/dL),CREAT,18,CHEMISTRY,1.3,1.3,1.1,1.1,Normal,Normal,8-22 DAYS,15,2,8,22,DAYS,,Y
BBC,BBC-10-147,147,10,49,ARM C,3,ARM C,3,Y,Y,Y,Y,12DEC2006,18MAR2007,25JAN2007,45,,Week 6,6,Creatinine (mg/dL),CREAT,18,CHEMISTRY,1.2,1.2,1.1,1.1,Normal,Normal,37-50 DAYS,43,2,37,50,DAYS,,Y
BBC,BBC-10-147,147,10,50,ARM C,3,ARM C,3,Y,Y,Y,Y,12DEC2006,18MAR2007,19MAR2007,98,,Week 12,12,Creatinine (mg/dL),CREAT,18,CHEMISTRY,1.2,1.2,1.1,1.1,Normal,Normal,72-99 DAYS,85,13,72,99,DAYS,,Y
BBC,BBC-10-147,147,10,142,ARM C,3,ARM C,3,Y,Y,Y,Y,12DEC2006,18MAR2007,01DEC2006,-11,,,,Lymphocytes (10^9/L),LYM,19,HEMATOLOGY,1.55,1.55,1.97,1.97,Normal,Normal,,,,,,,,
BBC,BBC-10-147,147,10,143,ARM C,3,ARM C,3,Y,Y,Y,Y,12DEC2006,18MAR2007,12DEC2006,1,,Day 1 Baseline,0,Lymphocytes (10^9/L),LYM,19,HEMATOLOGY,1.97,1.97,1.97,1.97,Normal,Normal,,,,,,,Y,Y
BBC,BBC-10-147,147,10,144,ARM C,3,ARM C,3,Y,Y,Y,Y,12DEC2006,18MAR2007,28DEC2006,17,,Week 2,2,Lymphocytes (10^9/L),LYM,19,HEMATOLOGY,1.86,1.86,1.97,1.97,Normal,Normal,8-22 DAYS,15,2,8,22,DAYS,,Y
BBC,BBC-10-147,147,10,145,ARM C,3,ARM C,3,Y,Y,Y,Y,12DEC2006,18MAR2007,25JAN2007,45,,Week 6,6,Lymphocytes (10^9/L),LYM,19,HEMATOLOGY,1.68,1.68,1.97,1.97,Normal,Normal,37-50 DAYS,43,2,37,50,DAYS,,Y
BBC,BBC-10-147,147,10,146,ARM C,3,ARM C,3,Y,Y,Y,Y,12DEC2006,18MAR2007,19MAR2007,98,,Week 12,12,Lymphocytes (10^9/L),LYM,19,HEMATOLOGY,2,2.00,1.97,1.97,Normal,Normal,72-99 DAYS,85,13,72,99,DAYS,,Y
BBC,BBC-10-147,147,10,167,ARM C,3,ARM C,3,Y,Y,Y,Y,12DEC2006,18MAR2007,01DEC2006,-11,,,,Monocytes (10^9/L),MONO,20,HEMATOLOGY,0.52,0.52,0.6,0.60,Normal,Normal,,,,,,,,
BBC,BBC-10-147,147,10,168,ARM C,3,ARM C,3,Y,Y,Y,Y,12DEC2006,18MAR2007,12DEC2006,1,,Day 1 Baseline,0,Monocytes (10^9/L),MONO,20,HEMATOLOGY,0.6,0.60,0.6,0.60,Normal,Normal,,,,,,,Y,Y
BBC,BBC-10-147,147,10,169,ARM C,3,ARM C,3,Y,Y,Y,Y,12DEC2006,18MAR2007,28DEC2006,17,,Week 2,2,Monocytes (10^9/L),MONO,20,HEMATOLOGY,0.63,0.63,0.6,0.60,Normal,Normal,8-22 DAYS,15,2,8,22,DAYS,,Y
BBC,BBC-10-147,147,10,170,ARM C,3,ARM C,3,Y,Y,Y,Y,12DEC2006,18MAR2007,25JAN2007,45,,Week 6,6,Monocytes (10^9/L),MONO,20,HEMATOLOGY,0.64,0.64,0.6,0.60,Normal,Normal,37-50 DAYS,43,2,37,50,DAYS,,Y
BBC,BBC-10-147,147,10,171,ARM C,3,ARM C,3,Y,Y,Y,Y,12DEC2006,18MAR2007,19MAR2007,98,,Week 12,12,Monocytes (10^9/L),MONO,20,HEMATOLOGY,0.67,0.67,0.6,0.60,Normal,Normal,72-99 DAYS,85,13,72,99,DAYS,,Y
BBC,BBC-10-147,147,10,197,ARM C,3,ARM C,3,Y,Y,Y,Y,12DEC2006,18MAR2007,01DEC2006,-11,,,,RBC Distribution Width (%),RDW,21,HEMATOLOGY,13.5,13.5,12.7,12.7,Normal,Normal,,,,,,,,
BBC,BBC-10-147,147,10,198,ARM C,3,ARM C,3,Y,Y,Y,Y,12DEC2006,18MAR2007,12DEC2006,1,,Day 1 Baseline,0,RBC Distribution Width (%),RDW,21,HEMATOLOGY,12.7,12.7,12.7,12.7,Normal,Normal,,,,,,,Y,Y
BBC,BBC-10-147,147,10,199,ARM C,3,ARM C,3,Y,Y,Y,Y,12DEC2006,18MAR2007,28DEC2006,17,,Week 2,2,RBC Distribution Width (%),RDW,21,HEMATOLOGY,12.9,12.9,12.7,12.7,Normal,Normal,8-22 DAYS,15,2,8,22,DAYS,,Y
BBC,BBC-10-147,147,10,200,ARM C,3,ARM C,3,Y,Y,Y,Y,12DEC2006,18MAR2007,25JAN2007,45,,Week 6,6,RBC Distribution Width (%),RDW,21,HEMATOLOGY,13.1,13.1,12.7,12.7,Normal,Normal,37-50 DAYS,43,2,37,50,DAYS,,Y
BBC,BBC-10-147,147,10,201,ARM C,3,ARM C,3,Y,Y,Y,Y,12DEC2006,18MAR2007,19MAR2007,98,,Week 12,12,RBC Distribution Width (%),RDW,21,HEMATOLOGY,13.6,13.6,12.7,12.7,Normal,Normal,72-99 DAYS,85,13,72,99,DAYS,,Y
BBC,BBC-10-147,147,10,187,ARM C,3,ARM C,3,Y,Y,Y,Y,12DEC2006,18MAR2007,01DEC2006,-11,,,,Platelet Count (10^9/L),PLAT,22,HEMATOLOGY,281,281,322,322,Normal,Normal,,,,,,,,
BBC,BBC-10-147,147,10,188,ARM C,3,ARM C,3,Y,Y,Y,Y,12DEC2006,18MAR2007,12DEC2006,1,,Day 1 Baseline,0,Platelet Count (10^9/L),PLAT,22,HEMATOLOGY,322,322,322,322,Normal,Normal,,,,,,,Y,Y
BBC,BBC-10-147,147,10,189,ARM C,3,ARM C,3,Y,Y,Y,Y,12DEC2006,18MAR2007,28DEC2006,17,,Week 2,2,Platelet Count (10^9/L),PLAT,22,HEMATOLOGY,274,274,322,322,Normal,Normal,8-22 DAYS,15,2,8,22,DAYS,,Y
BBC,BBC-10-147,147,10,190,ARM C,3,ARM C,3,Y,Y,Y,Y,12DEC2006,18MAR2007,25JAN2007,45,,Week 6,6,Platelet Count (10^9/L),PLAT,22,HEMATOLOGY,309,309,322,322,Normal,Normal,37-50 DAYS,43,2,37,50,DAYS,,Y
BBC,BBC-10-147,147,10,191,ARM C,3,ARM C,3,Y,Y,Y,Y,12DEC2006,18MAR2007,19MAR2007,98,,Week 12,12,Platelet Count (10^9/L),PLAT,22,HEMATOLOGY,253,253,322,322,Normal,Normal,72-99 DAYS,85,13,72,99,DAYS,,Y
BBC,BBC-10-147,147,10,177,ARM C,3,ARM C,3,Y,Y,Y,Y,12DEC2006,18MAR2007,01DEC2006,-11,,,,Neutrophils (10^9/L),NEUT,23,HEMATOLOGY,4.56,4.56,3.79,3.79,Normal,Normal,,,,,,,,
BBC,BBC-10-147,147,10,178,ARM C,3,ARM C,3,Y,Y,Y,Y,12DEC2006,18MAR2007,12DEC2006,1,,Day 1 Baseline,0,Neutrophils (10^9/L),NEUT,23,HEMATOLOGY,3.79,3.79,3.79,3.79,Normal,Normal,,,,,,,Y,Y
BBC,BBC-10-147,147,10,179,ARM C,3,ARM C,3,Y,Y,Y,Y,12DEC2006,18MAR2007,28DEC2006,17,,Week 2,2,Neutrophils (10^9/L),NEUT,23,HEMATOLOGY,4.43,4.43,3.79,3.79,Normal,Normal,8-22 DAYS,15,2,8,22,DAYS,,Y
BBC,BBC-10-147,147,10,180,ARM C,3,ARM C,3,Y,Y,Y,Y,12DEC2006,18MAR2007,25JAN2007,45,,Week 6,6,Neutrophils (10^9/L),NEUT,23,HEMATOLOGY,3.94,3.94,3.79,3.79,Normal,Normal,37-50 DAYS,43,2,37,50,DAYS,,Y
BBC,BBC-10-147,147,10,181,ARM C,3,ARM C,3,Y,Y,Y,Y,12DEC2006,18MAR2007,19MAR2007,98,,Week 12,12,Neutrophils (10^9/L),NEUT,23,HEMATOLOGY,4.57,4.57,3.79,3.79,Normal,Normal,72-99 DAYS,85,13,72,99,DAYS,,Y
BBC,BBC-10-147,147,10,122,ARM C,3,ARM C,3,Y,Y,Y,Y,12DEC2006,18MAR2007,01DEC2006,-11,,,,Eosinophils (10^9/L),EOS,24,HEMATOLOGY,0.07,0.07,0.13,0.13,Normal,Normal,,,,,,,,
BBC,BBC-10-147,147,10,123,ARM C,3,ARM C,3,Y,Y,Y,Y,12DEC2006,18MAR2007,12DEC2006,1,,Day 1 Baseline,0,Eosinophils (10^9/L),EOS,24,HEMATOLOGY,0.13,0.13,0.13,0.13,Normal,Normal,,,,,,,Y,Y
BBC,BBC-10-147,147,10,124,ARM C,3,ARM C,3,Y,Y,Y,Y,12DEC2006,18MAR2007,28DEC2006,17,,Week 2,2,Eosinophils (10^9/L),EOS,24,HEMATOLOGY,0.13,0.13,0.13,0.13,Normal,Normal,8-22 DAYS,15,2,8,22,DAYS,,Y
BBC,BBC-10-147,147,10,125,ARM C,3,ARM C,3,Y,Y,Y,Y,12DEC2006,18MAR2007,25JAN2007,45,,Week 6,6,Eosinophils (10^9/L),EOS,24,HEMATOLOGY,0.1,0.10,0.13,0.13,Normal,Normal,37-50 DAYS,43,2,37,50,DAYS,,Y
BBC,BBC-10-147,147,10,126,ARM C,3,ARM C,3,Y,Y,Y,Y,12DEC2006,18MAR2007,19MAR2007,98,,Week 12,12,Eosinophils (10^9/L),EOS,24,HEMATOLOGY,0.08,0.08,0.13,0.13,Normal,Normal,72-99 DAYS,85,13,72,99,DAYS,,Y
BBC,BBC-10-147,147,10,112,ARM C,3,ARM C,3,Y,Y,Y,Y,12DEC2006,18MAR2007,01DEC2006,-11,,,,Basophils (10^9/L),BASO,25,HEMATOLOGY,0.02,0.02,0.05,0.05,Normal,Normal,,,,,,,,
BBC,BBC-10-147,147,10,113,ARM C,3,ARM C,3,Y,Y,Y,Y,12DEC2006,18MAR2007,12DEC2006,1,,Day 1 Baseline,0,Basophils (10^9/L),BASO,25,HEMATOLOGY,0.05,0.05,0.05,0.05,Normal,Normal,,,,,,,Y,Y
BBC,BBC-10-147,147,10,114,ARM C,3,ARM C,3,Y,Y,Y,Y,12DEC2006,18MAR2007,28DEC2006,17,,Week 2,2,Basophils (10^9/L),BASO,25,HEMATOLOGY,0.05,0.05,0.05,0.05,Normal,Normal,8-22 DAYS,15,2,8,22,DAYS,,Y
BBC,BBC-10-147,147,10,115,ARM C,3,ARM C,3,Y,Y,Y,Y,12DEC2006,18MAR2007,25JAN2007,45,,Week 6,6,Basophils (10^9/L),BASO,25,HEMATOLOGY,0.03,0.03,0.05,0.05,Normal,Normal,37-50 DAYS,43,2,37,50,DAYS,,Y
BBC,BBC-10-147,147,10,116,ARM C,3,ARM C,3,Y,Y,Y,Y,12DEC2006,18MAR2007,19MAR2007,98,,Week 12,12,Basophils (10^9/L),BASO,25,HEMATOLOGY,0.03,0.03,0.05,0.05,Normal,Normal,72-99 DAYS,85,13,72,99,DAYS,,Y
BBC,BBC-10-147,147,10,202,ARM C,3,ARM C,3,Y,Y,Y,Y,12DEC2006,18MAR2007,01DEC2006,-11,,,,Leukocytes (10^9/L),WBC,26,HEMATOLOGY,6.7,6.7,6.5,6.5,Normal,Normal,,,,,,,,
BBC,BBC-10-147,147,10,203,ARM C,3,ARM C,3,Y,Y,Y,Y,12DEC2006,18MAR2007,12DEC2006,1,,Day 1 Baseline,0,Leukocytes (10^9/L),WBC,26,HEMATOLOGY,6.5,6.5,6.5,6.5,Normal,Normal,,,,,,,Y,Y
BBC,BBC-10-147,147,10,204,ARM C,3,ARM C,3,Y,Y,Y,Y,12DEC2006,18MAR2007,28DEC2006,17,,Week 2,2,Leukocytes (10^9/L),WBC,26,HEMATOLOGY,7.1,7.1,6.5,6.5,Normal,Normal,8-22 DAYS,15,2,8,22,DAYS,,Y
BBC,BBC-10-147,147,10,205,ARM C,3,ARM C,3,Y,Y,Y,Y,12DEC2006,18MAR2007,25JAN2007,45,,Week 6,6,Leukocytes (10^9/L),WBC,26,HEMATOLOGY,6.4,6.4,6.5,6.5,Normal,Normal,37-50 DAYS,43,2,37,50,DAYS,,Y
BBC,BBC-10-147,147,10,206,ARM C,3,ARM C,3,Y,Y,Y,Y,12DEC2006,18MAR2007,19MAR2007,98,,Week 12,12,Leukocytes (10^9/L),WBC,26,HEMATOLOGY,7.3,7.3,6.5,6.5,Normal,Normal,72-99 DAYS,85,13,72,99,DAYS,,Y
BBC,BBC-10-147,147,10,192,ARM C,3,ARM C,3,Y,Y,Y,Y,12DEC2006,18MAR2007,01DEC2006,-11,,,,Erythrocytes (10^12/L),RBC,27,HEMATOLOGY,5.18,5.18,5.04,5.04,Normal,Normal,,,,,,,,
BBC,BBC-10-147,147,10,193,ARM C,3,ARM C,3,Y,Y,Y,Y,12DEC2006,18MAR2007,12DEC2006,1,,Day 1 Baseline,0,Erythrocytes (10^12/L),RBC,27,HEMATOLOGY,5.04,5.04,5.04,5.04,Normal,Normal,,,,,,,Y,Y
BBC,BBC-10-147,147,10,194,ARM C,3,ARM C,3,Y,Y,Y,Y,12DEC2006,18MAR2007,28DEC2006,17,,Week 2,2,Erythrocytes (10^12/L),RBC,27,HEMATOLOGY,4.99,4.99,5.04,5.04,Normal,Normal,8-22 DAYS,15,2,8,22,DAYS,,Y
BBC,BBC-10-147,147,10,195,ARM C,3,ARM C,3,Y,Y,Y,Y,12DEC2006,18MAR2007,25JAN2007,45,,Week 6,6,Erythrocytes (10^12/L),RBC,27,HEMATOLOGY,5.05,5.05,5.04,5.04,Normal,Normal,37-50 DAYS,43,2,37,50,DAYS,,Y
BBC,BBC-10-147,147,10,196,ARM C,3,ARM C,3,Y,Y,Y,Y,12DEC2006,18MAR2007,19MAR2007,98,,Week 12,12,Erythrocytes (10^12/L),RBC,27,HEMATOLOGY,4.8,4.80,5.04,5.04,Normal,Normal,72-99 DAYS,85,13,72,99,DAYS,,Y
BBC,BBC-10-147,147,10,137,ARM C,3,ARM C,3,Y,Y,Y,Y,12DEC2006,18MAR2007,01DEC2006,-11,,,,Hemoglobin (g/dL),HGB,28,HEMATOLOGY,15.6,15.6,15.3,15.3,Normal,Normal,,,,,,,,
BBC,BBC-10-147,147,10,138,ARM C,3,ARM C,3,Y,Y,Y,Y,12DEC2006,18MAR2007,12DEC2006,1,,Day 1 Baseline,0,Hemoglobin (g/dL),HGB,28,HEMATOLOGY,15.3,15.3,15.3,15.3,Normal,Normal,,,,,,,Y,Y
BBC,BBC-10-147,147,10,139,ARM C,3,ARM C,3,Y,Y,Y,Y,12DEC2006,18MAR2007,28DEC2006,17,,Week 2,2,Hemoglobin (g/dL),HGB,28,HEMATOLOGY,15.2,15.2,15.3,15.3,Normal,Normal,8-22 DAYS,15,2,8,22,DAYS,,Y
BBC,BBC-10-147,147,10,140,ARM C,3,ARM C,3,Y,Y,Y,Y,12DEC2006,18MAR2007,25JAN2007,45,,Week 6,6,Hemoglobin (g/dL),HGB,28,HEMATOLOGY,15.3,15.3,15.3,15.3,Normal,Normal,37-50 DAYS,43,2,37,50,DAYS,,Y
BBC,BBC-10-147,147,10,141,ARM C,3,ARM C,3,Y,Y,Y,Y,12DEC2006,18MAR2007,19MAR2007,98,,Week 12,12,Hemoglobin (g/dL),HGB,28,HEMATOLOGY,14.8,14.8,15.3,15.3,Normal,Normal,72-99 DAYS,85,13,72,99,DAYS,,Y
BBC,BBC-10-147,147,10,132,ARM C,3,ARM C,3,Y,Y,Y,Y,12DEC2006,18MAR2007,01DEC2006,-11,,,,Hematocrit (%),HCT,29,HEMATOLOGY,46.4,46.4,44.2,44.2,Normal,Normal,,,,,,,,
BBC,BBC-10-147,147,10,133,ARM C,3,ARM C,3,Y,Y,Y,Y,12DEC2006,18MAR2007,12DEC2006,1,,Day 1 Baseline,0,Hematocrit (%),HCT,29,HEMATOLOGY,44.2,44.2,44.2,44.2,Normal,Normal,,,,,,,Y,Y
BBC,BBC-10-147,147,10,134,ARM C,3,ARM C,3,Y,Y,Y,Y,12DEC2006,18MAR2007,28DEC2006,17,,Week 2,2,Hematocrit (%),HCT,29,HEMATOLOGY,43.6,43.6,44.2,44.2,Normal,Normal,8-22 DAYS,15,2,8,22,DAYS,,Y
BBC,BBC-10-147,147,10,135,ARM C,3,ARM C,3,Y,Y,Y,Y,12DEC2006,18MAR2007,25JAN2007,45,,Week 6,6,Hematocrit (%),HCT,29,HEMATOLOGY,43.9,43.9,44.2,44.2,Normal,Normal,37-50 DAYS,43,2,37,50,DAYS,,Y
BBC,BBC-10-147,147,10,136,ARM C,3,ARM C,3,Y,Y,Y,Y,12DEC2006,18MAR2007,19MAR2007,98,,Week 12,12,Hematocrit (%),HCT,29,HEMATOLOGY,42.8,42.8,44.2,44.2,Normal,Normal,72-99 DAYS,85,13,72,99,DAYS,,Y
BBC,BBC-10-147,147,10,162,ARM C,3,ARM C,3,Y,Y,Y,Y,12DEC2006,18MAR2007,01DEC2006,-11,,,,Ery. Mean Corpuscular Volume (fL),MCV,30,HEMATOLOGY,89.7,89.7,87.7,87.7,Normal,Normal,,,,,,,,
BBC,BBC-10-147,147,10,163,ARM C,3,ARM C,3,Y,Y,Y,Y,12DEC2006,18MAR2007,12DEC2006,1,,Day 1 Baseline,0,Ery. Mean Corpuscular Volume (fL),MCV,30,HEMATOLOGY,87.7,87.7,87.7,87.7,Normal,Normal,,,,,,,Y,Y
BBC,BBC-10-147,147,10,164,ARM C,3,ARM C,3,Y,Y,Y,Y,12DEC2006,18MAR2007,28DEC2006,17,,Week 2,2,Ery. Mean Corpuscular Volume (fL),MCV,30,HEMATOLOGY,87.4,87.4,87.7,87.7,Normal,Normal,8-22 DAYS,15,2,8,22,DAYS,,Y
BBC,BBC-10-147,147,10,165,ARM C,3,ARM C,3,Y,Y,Y,Y,12DEC2006,18MAR2007,25JAN2007,45,,Week 6,6,Ery. Mean Corpuscular Volume (fL),MCV,30,HEMATOLOGY,87,87.0,87.7,87.7,Normal,Normal,37-50 DAYS,43,2,37,50,DAYS,,Y
BBC,BBC-10-147,147,10,166,ARM C,3,ARM C,3,Y,Y,Y,Y,12DEC2006,18MAR2007,19MAR2007,98,,Week 12,12,Ery. Mean Corpuscular Volume (fL),MCV,30,HEMATOLOGY,89.3,89.3,87.7,87.7,Normal,Normal,72-99 DAYS,85,13,72,99,DAYS,,Y
BBC,BBC-10-147,147,10,152,ARM C,3,ARM C,3,Y,Y,Y,Y,12DEC2006,18MAR2007,01DEC2006,-11,,,,Ery. Mean Corpuscular Hemoglobin (pg),MCH,31,HEMATOLOGY,30.1,30.1,30.3,30.3,Normal,Normal,,,,,,,,
BBC,BBC-10-147,147,10,153,ARM C,3,ARM C,3,Y,Y,Y,Y,12DEC2006,18MAR2007,12DEC2006,1,,Day 1 Baseline,0,Ery. Mean Corpuscular Hemoglobin (pg),MCH,31,HEMATOLOGY,30.3,30.3,30.3,30.3,Normal,Normal,,,,,,,Y,Y
BBC,BBC-10-147,147,10,154,ARM C,3,ARM C,3,Y,Y,Y,Y,12DEC2006,18MAR2007,28DEC2006,17,,Week 2,2,Ery. Mean Corpuscular Hemoglobin (pg),MCH,31,HEMATOLOGY,30.5,30.5,30.3,30.3,Normal,Normal,8-22 DAYS,15,2,8,22,DAYS,,Y
BBC,BBC-10-147,147,10,155,ARM C,3,ARM C,3,Y,Y,Y,Y,12DEC2006,18MAR2007,25JAN2007,45,,Week 6,6,Ery. Mean Corpuscular Hemoglobin (pg),MCH,31,HEMATOLOGY,30.3,30.3,30.3,30.3,Normal,Normal,37-50 DAYS,43,2,37,50,DAYS,,Y
BBC,BBC-10-147,147,10,156,ARM C,3,ARM C,3,Y,Y,Y,Y,12DEC2006,18MAR2007,19MAR2007,98,,Week 12,12,Ery. Mean Corpuscular Hemoglobin (pg),MCH,31,HEMATOLOGY,30.8,30.8,30.3,30.3,Normal,Normal,72-99 DAYS,85,13,72,99,DAYS,,Y
BBC,BBC-10-147,147,10,157,ARM C,3,ARM C,3,Y,Y,Y,Y,12DEC2006,18MAR2007,01DEC2006,-11,,,,Ery. Mean Corpuscular HGB Concentration (g/dL),MCHC,32,HEMATOLOGY,33.6,33.6,34.6,34.6,Normal,Normal,,,,,,,,
BBC,BBC-10-147,147,10,158,ARM C,3,ARM C,3,Y,Y,Y,Y,12DEC2006,18MAR2007,12DEC2006,1,,Day 1 Baseline,0,Ery. Mean Corpuscular HGB Concentration (g/dL),MCHC,32,HEMATOLOGY,34.6,34.6,34.6,34.6,Normal,Normal,,,,,,,Y,Y
BBC,BBC-10-147,147,10,159,ARM C,3,ARM C,3,Y,Y,Y,Y,12DEC2006,18MAR2007,28DEC2006,17,,Week 2,2,Ery. Mean Corpuscular HGB Concentration (g/dL),MCHC,32,HEMATOLOGY,34.9,34.9,34.6,34.6,Normal,Normal,8-22 DAYS,15,2,8,22,DAYS,,Y
BBC,BBC-10-147,147,10,160,ARM C,3,ARM C,3,Y,Y,Y,Y,12DEC2006,18MAR2007,25JAN2007,45,,Week 6,6,Ery. Mean Corpuscular HGB Concentration (g/dL),MCHC,32,HEMATOLOGY,34.9,34.9,34.6,34.6,Normal,Normal,37-50 DAYS,43,2,37,50,DAYS,,Y
BBC,BBC-10-147,147,10,161,ARM C,3,ARM C,3,Y,Y,Y,Y,12DEC2006,18MAR2007,19MAR2007,98,,Week 12,12,Ery. Mean Corpuscular HGB Concentration (g/dL),MCHC,32,HEMATOLOGY,34.4,34.4,34.6,34.6,Normal,Normal,72-99 DAYS,85,13,72,99,DAYS,,Y
BBC,BBC-10-147,147,10,222,ARM C,3,ARM C,3,Y,Y,Y,Y,12DEC2006,18MAR2007,01DEC2006,-11,,,,Creatinine (mg/dL),CREACONC,33,URINALYSIS,46,46,139,139,,,,,,,,,,
BBC,BBC-10-147,147,10,223,ARM C,3,ARM C,3,Y,Y,Y,Y,12DEC2006,18MAR2007,12DEC2006,1,,Day 1 Baseline,0,Creatinine (mg/dL),CREACONC,33,URINALYSIS,139,139,139,139,,,,,,,,,Y,Y
BBC,BBC-10-147,147,10,224,ARM C,3,ARM C,3,Y,Y,Y,Y,12DEC2006,18MAR2007,28DEC2006,17,,Week 2,2,Creatinine (mg/dL),CREACONC,33,URINALYSIS,137,137,139,139,,,8-22 DAYS,15,2,8,22,DAYS,,Y
BBC,BBC-10-147,147,10,225,ARM C,3,ARM C,3,Y,Y,Y,Y,12DEC2006,18MAR2007,25JAN2007,45,,Week 6,6,Creatinine (mg/dL),CREACONC,33,URINALYSIS,227,227,139,139,,,37-50 DAYS,43,2,37,50,DAYS,,Y
BBC,BBC-10-147,147,10,226,ARM C,3,ARM C,3,Y,Y,Y,Y,12DEC2006,18MAR2007,19MAR2007,98,,Week 12,12,Creatinine (mg/dL),CREACONC,33,URINALYSIS,150,150,139,139,,,72-99 DAYS,85,13,72,99,DAYS,,Y
BBC,BBC-10-147,147,10,212,ARM C,3,ARM C,3,Y,Y,Y,Y,12DEC2006,18MAR2007,01DEC2006,-11,,,,Calcium (mg/L),CACONC,34,URINALYSIS,16.708478,16.708478,30,30.000000,,,,,,,,,,
BBC,BBC-10-147,147,10,213,ARM C,3,ARM C,3,Y,Y,Y,Y,12DEC2006,18MAR2007,12DEC2006,1,,Day 1 Baseline,0,Calcium (mg/L),CACONC,34,URINALYSIS,30,30.000000,30,30.000000,,,,,,,,,Y,Y
BBC,BBC-10-147,147,10,214,ARM C,3,ARM C,3,Y,Y,Y,Y,12DEC2006,18MAR2007,28DEC2006,17,,Week 2,2,Calcium (mg/L),CACONC,34,URINALYSIS,20,20.000000,30,30.000000,,,8-22 DAYS,15,2,8,22,DAYS,,Y
BBC,BBC-10-147,147,10,215,ARM C,3,ARM C,3,Y,Y,Y,Y,12DEC2006,18MAR2007,25JAN2007,45,,Week 6,6,Calcium (mg/L),CACONC,34,URINALYSIS,5,5.000000,30,30.000000,,,37-50 DAYS,43,2,37,50,DAYS,,Y
BBC,BBC-10-147,147,10,216,ARM C,3,ARM C,3,Y,Y,Y,Y,12DEC2006,18MAR2007,19MAR2007,98,,Week 12,12,Calcium (mg/L),CACONC,34,URINALYSIS,21,21.000000,30,30.000000,,,72-99 DAYS,85,13,72,99,DAYS,,Y
BBC,BBC-10-147,147,10,217,ARM C,3,ARM C,3,Y,Y,Y,Y,12DEC2006,18MAR2007,01DEC2006,-11,,,,Calcium/Creatinine Ratio,CACREAT,35,URINALYSIS,0.04,0.04,0.02,0.02,,,,,,,,,,
BBC,BBC-10-147,147,10,218,ARM C,3,ARM C,3,Y,Y,Y,Y,12DEC2006,18MAR2007,12DEC2006,1,,Day 1 Baseline,0,Calcium/Creatinine Ratio,CACREAT,35,URINALYSIS,0.02,0.02,0.02,0.02,,,,,,,,,Y,Y
BBC,BBC-10-147,147,10,219,ARM C,3,ARM C,3,Y,Y,Y,Y,12DEC2006,18MAR2007,28DEC2006,17,,Week 2,2,Calcium/Creatinine Ratio,CACREAT,35,URINALYSIS,0.01,0.01,0.02,0.02,,,8-22 DAYS,15,2,8,22,DAYS,,Y
BBC,BBC-10-147,147,10,220,ARM C,3,ARM C,3,Y,Y,Y,Y,12DEC2006,18MAR2007,25JAN2007,45,,Week 6,6,Calcium/Creatinine Ratio,CACREAT,35,URINALYSIS,0,0.00,0.02,0.02,,,37-50 DAYS,43,2,37,50,DAYS,,Y
BBC,BBC-10-147,147,10,221,ARM C,3,ARM C,3,Y,Y,Y,Y,12DEC2006,18MAR2007,19MAR2007,98,,Week 12,12,Calcium/Creatinine Ratio,CACREAT,35,URINALYSIS,0.01,0.01,0.02,0.02,,,72-99 DAYS,85,13,72,99,DAYS,,Y
BBC,BBC-10-147,147,10,260,ARM C,3,ARM C,3,Y,Y,Y,Y,12DEC2006,18MAR2007,01DEC2006,-11,,,,Phosphate Concentration (mg/dL),PHOSCONC,36,URINALYSIS,20,20.0,66,66.0,,,,,,,,,,
BBC,BBC-10-147,147,10,261,ARM C,3,ARM C,3,Y,Y,Y,Y,12DEC2006,18MAR2007,12DEC2006,1,,Day 1 Baseline,0,Phosphate Concentration (mg/dL),PHOSCONC,36,URINALYSIS,66,66.0,66,66.0,,,,,,,,,Y,Y
BBC,BBC-10-147,147,10,262,ARM C,3,ARM C,3,Y,Y,Y,Y,12DEC2006,18MAR2007,28DEC2006,17,,Week 2,2,Phosphate Concentration (mg/dL),PHOSCONC,36,URINALYSIS,61,61.0,66,66.0,,,8-22 DAYS,15,2,8,22,DAYS,,Y
BBC,BBC-10-147,147,10,263,ARM C,3,ARM C,3,Y,Y,Y,Y,12DEC2006,18MAR2007,25JAN2007,45,,Week 6,6,Phosphate Concentration (mg/dL),PHOSCONC,36,URINALYSIS,67,67.0,66,66.0,,,37-50 DAYS,43,2,37,50,DAYS,,Y
BBC,BBC-10-147,147,10,264,ARM C,3,ARM C,3,Y,Y,Y,Y,12DEC2006,18MAR2007,19MAR2007,98,,Week 12,12,Phosphate Concentration (mg/dL),PHOSCONC,36,URINALYSIS,65,65.0,66,66.0,,,72-99 DAYS,85,13,72,99,DAYS,,Y
BBC,BBC-10-147,147,10,95,ARM C,3,ARM C,3,Y,Y,Y,Y,12DEC2006,18MAR2007,12DEC2006,1,,Day 1 Baseline,0,"Parathyroid Hormone, PTH (pmol/L)",PTHI,37,ENDOCRINE,2.3,2.3,2.3,2.3,Normal,Normal,,,,,,,Y,Y
BBC,BBC-10-147,147,10,97,ARM C,3,ARM C,3,Y,Y,Y,Y,12DEC2006,18MAR2007,25JAN2007,45,,Week 6,6,"Parathyroid Hormone, PTH (pmol/L)",PTHI,37,ENDOCRINE,3.2,3.2,2.3,2.3,Normal,Normal,37-50 DAYS,43,2,37,50,DAYS,,Y
BBC,BBC-10-147,147,10,99,ARM C,3,ARM C,3,Y,Y,Y,Y,12DEC2006,18MAR2007,19MAR2007,98,,Week 12,12,"Parathyroid Hormone, PTH (pmol/L)",PTHI,37,ENDOCRINE,4,4.0,2.3,2.3,Normal,Normal,72-99 DAYS,85,13,72,99,DAYS,,Y
BBC,BBC-10-147,147,10,109,ARM C,3,ARM C,3,Y,Y,Y,Y,12DEC2006,18MAR2007,12DEC2006,1,,Day 1 Baseline,0,25-Hydroxyvitamin D3 (ug/L),VITDIT3,38,ENDOCRINE,16,16.0,16,16.0,,,,,,,,,Y,Y
BBC,BBC-10-147,147,10,110,ARM C,3,ARM C,3,Y,Y,Y,Y,12DEC2006,18MAR2007,25JAN2007,45,,Week 6,6,25-Hydroxyvitamin D3 (ug/L),VITDIT3,38,ENDOCRINE,15,15.0,16,16.0,,,37-50 DAYS,43,2,37,50,DAYS,,Y
BBC,BBC-10-147,147,10,111,ARM C,3,ARM C,3,Y,Y,Y,Y,12DEC2006,18MAR2007,19MAR2007,98,,Week 12,12,25-Hydroxyvitamin D3 (ug/L),VITDIT3,38,ENDOCRINE,15,15.0,16,16.0,,,72-99 DAYS,85,13,72,99,DAYS,,Y
BBC,BBC-10-147,147,10,91,ARM C,3,ARM C,3,Y,Y,Y,Y,12DEC2006,18MAR2007,12DEC2006,1,,Day 1 Baseline,0,Osteocalcin (ug/L),OSTEOC,39,ENDOCRINE,19,19.0,19,19.0,,,,,,,,,Y,Y
BBC,BBC-10-147,147,10,92,ARM C,3,ARM C,3,Y,Y,Y,Y,12DEC2006,18MAR2007,25JAN2007,45,,Week 6,6,Osteocalcin (ug/L),OSTEOC,39,ENDOCRINE,21.1,21.1,19,19.0,,,37-50 DAYS,43,2,37,50,DAYS,,Y
BBC,BBC-10-147,147,10,93,ARM C,3,ARM C,3,Y,Y,Y,Y,12DEC2006,18MAR2007,19MAR2007,98,,Week 12,12,Osteocalcin (ug/L),OSTEOC,39,ENDOCRINE,18.8,18.8,19,19.0,,,72-99 DAYS,85,13,72,99,DAYS,,Y
BBC,BBC-10-147,147,10,100,ARM C,3,ARM C,3,Y,Y,Y,Y,12DEC2006,18MAR2007,12DEC2006,1,,Day 1 Baseline,0,"1, 25-Dihydroxyvitamin D (pmol/L)",VITDAT,40,ENDOCRINE,1.47,1.47,1.47,1.47,Low,Low,,,,,,,Y,Y
BBC,BBC-10-147,147,10,101,ARM C,3,ARM C,3,Y,Y,Y,Y,12DEC2006,18MAR2007,25JAN2007,45,,Week 6,6,"1, 25-Dihydroxyvitamin D (pmol/L)",VITDAT,40,ENDOCRINE,3.57,3.57,1.47,1.47,Normal,Low,37-50 DAYS,43,2,37,50,DAYS,,Y
BBC,BBC-10-147,147,10,102,ARM C,3,ARM C,3,Y,Y,Y,Y,12DEC2006,18MAR2007,19MAR2007,98,,Week 12,12,"1, 25-Dihydroxyvitamin D (pmol/L)",VITDAT,40,ENDOCRINE,7.46,7.46,1.47,1.47,High,Low,72-99 DAYS,85,13,72,99,DAYS,,Y
BBC,BBC-10-148,148,10,31,ARM B,2,ARM B,2,Y,Y,Y,Y,12DEC2006,07MAR2007,30NOV2006,-12,,,,Total Calcium (mg/dL),CA,1,CHEMISTRY,9.5,9.5,9.3,9.3,Normal,Normal,,,,,,,,
BBC,BBC-10-148,148,10,32,ARM B,2,ARM B,2,Y,Y,Y,Y,12DEC2006,07MAR2007,12DEC2006,1,,Day 1 Baseline,0,Total Calcium (mg/dL),CA,1,CHEMISTRY,9.3,9.3,9.3,9.3,Normal,Normal,,,,,,,Y,Y
BBC,BBC-10-148,148,10,33,ARM B,2,ARM B,2,Y,Y,Y,Y,12DEC2006,07MAR2007,28DEC2006,17,,Week 2,2,Total Calcium (mg/dL),CA,1,CHEMISTRY,9.7,9.7,9.3,9.3,Normal,Normal,8-22 DAYS,15,2,8,22,DAYS,,Y
BBC,BBC-10-148,148,10,34,ARM B,2,ARM B,2,Y,Y,Y,Y,12DEC2006,07MAR2007,25JAN2007,45,,Week 6,6,Total Calcium (mg/dL),CA,1,CHEMISTRY,9.3,9.3,9.3,9.3,Normal,Normal,37-50 DAYS,43,2,37,50,DAYS,,Y
BBC,BBC-10-148,148,10,35,ARM B,2,ARM B,2,Y,Y,Y,Y,12DEC2006,07MAR2007,15MAR2007,94,,Week 12,12,Total Calcium (mg/dL),CA,1,CHEMISTRY,9.5,9.5,9.3,9.3,Normal,Normal,72-99 DAYS,85,9,72,99,DAYS,,
BBC,BBC-10-148,148,10,56,ARM B,2,ARM B,2,Y,Y,Y,Y,12DEC2006,07MAR2007,30NOV2006,-12,,,,Potassium (mmol/L),K,2,CHEMISTRY,3.9,3.9,3.9,3.9,Normal,Normal,,,,,,,,
BBC,BBC-10-148,148,10,57,ARM B,2,ARM B,2,Y,Y,Y,Y,12DEC2006,07MAR2007,12DEC2006,1,,Day 1 Baseline,0,Potassium (mmol/L),K,2,CHEMISTRY,3.9,3.9,3.9,3.9,Normal,Normal,,,,,,,Y,Y
BBC,BBC-10-148,148,10,58,ARM B,2,ARM B,2,Y,Y,Y,Y,12DEC2006,07MAR2007,28DEC2006,17,,Week 2,2,Potassium (mmol/L),K,2,CHEMISTRY,3.5,3.5,3.9,3.9,Low,Normal,8-22 DAYS,15,2,8,22,DAYS,,Y
BBC,BBC-10-148,148,10,59,ARM B,2,ARM B,2,Y,Y,Y,Y,12DEC2006,07MAR2007,25JAN2007,45,,Week 6,6,Potassium (mmol/L),K,2,CHEMISTRY,4,4.0,3.9,3.9,Normal,Normal,37-50 DAYS,43,2,37,50,DAYS,,Y
BBC,BBC-10-148,148,10,60,ARM B,2,ARM B,2,Y,Y,Y,Y,12DEC2006,07MAR2007,15MAR2007,94,,Week 12,12,Potassium (mmol/L),K,2,CHEMISTRY,3.9,3.9,3.9,3.9,Normal,Normal,72-99 DAYS,85,9,72,99,DAYS,,
BBC,BBC-10-148,148,10,41,ARM B,2,ARM B,2,Y,Y,Y,Y,12DEC2006,07MAR2007,30NOV2006,-12,,,,Chloride (mmol/L),CL,3,CHEMISTRY,105,105,106,106,Normal,Normal,,,,,,,,
BBC,BBC-10-148,148,10,42,ARM B,2,ARM B,2,Y,Y,Y,Y,12DEC2006,07MAR2007,12DEC2006,1,,Day 1 Baseline,0,Chloride (mmol/L),CL,3,CHEMISTRY,106,106,106,106,Normal,Normal,,,,,,,Y,Y
BBC,BBC-10-148,148,10,43,ARM B,2,ARM B,2,Y,Y,Y,Y,12DEC2006,07MAR2007,28DEC2006,17,,Week 2,2,Chloride (mmol/L),CL,3,CHEMISTRY,104,104,106,106,Normal,Normal,8-22 DAYS,15,2,8,22,DAYS,,Y
BBC,BBC-10-148,148,10,44,ARM B,2,ARM B,2,Y,Y,Y,Y,12DEC2006,07MAR2007,25JAN2007,45,,Week 6,6,Chloride (mmol/L),CL,3,CHEMISTRY,102,102,106,106,Normal,Normal,37-50 DAYS,43,2,37,50,DAYS,,Y
BBC,BBC-10-148,148,10,45,ARM B,2,ARM B,2,Y,Y,Y,Y,12DEC2006,07MAR2007,15MAR2007,94,,Week 12,12,Chloride (mmol/L),CL,3,CHEMISTRY,107,107,106,106,Normal,Normal,72-99 DAYS,85,9,72,99,DAYS,,
BBC,BBC-10-148,148,10,21,ARM B,2,ARM B,2,Y,Y,Y,Y,12DEC2006,07MAR2007,30NOV2006,-12,,,,Total Bilirubin (mg/dL),BILI,4,CHEMISTRY,1.5,1.5,1,1.0,High,Normal,,,,,,,,
BBC,BBC-10-148,148,10,22,ARM B,2,ARM B,2,Y,Y,Y,Y,12DEC2006,07MAR2007,12DEC2006,1,,Day 1 Baseline,0,Total Bilirubin (mg/dL),BILI,4,CHEMISTRY,1,1.0,1,1.0,Normal,Normal,,,,,,,Y,Y
BBC,BBC-10-148,148,10,23,ARM B,2,ARM B,2,Y,Y,Y,Y,12DEC2006,07MAR2007,28DEC2006,17,,Week 2,2,Total Bilirubin (mg/dL),BILI,4,CHEMISTRY,0.6,0.6,1,1.0,Normal,Normal,8-22 DAYS,15,2,8,22,DAYS,,Y
BBC,BBC-10-148,148,10,24,ARM B,2,ARM B,2,Y,Y,Y,Y,12DEC2006,07MAR2007,25JAN2007,45,,Week 6,6,Total Bilirubin (mg/dL),BILI,4,CHEMISTRY,0.7,0.7,1,1.0,Normal,Normal,37-50 DAYS,43,2,37,50,DAYS,,Y
BBC,BBC-10-148,148,10,25,ARM B,2,ARM B,2,Y,Y,Y,Y,12DEC2006,07MAR2007,15MAR2007,94,,Week 12,12,Total Bilirubin (mg/dL),BILI,4,CHEMISTRY,1.1,1.1,1,1.0,High,Normal,72-99 DAYS,85,9,72,99,DAYS,,
BBC,BBC-10-148,148,10,76,ARM B,2,ARM B,2,Y,Y,Y,Y,12DEC2006,07MAR2007,30NOV2006,-12,,,,Sodium (mmol/L),SODIUM,5,CHEMISTRY,138,138,143,143,Normal,Normal,,,,,,,,
BBC,BBC-10-148,148,10,77,ARM B,2,ARM B,2,Y,Y,Y,Y,12DEC2006,07MAR2007,12DEC2006,1,,Day 1 Baseline,0,Sodium (mmol/L),SODIUM,5,CHEMISTRY,143,143,143,143,Normal,Normal,,,,,,,Y,Y
BBC,BBC-10-148,148,10,78,ARM B,2,ARM B,2,Y,Y,Y,Y,12DEC2006,07MAR2007,28DEC2006,17,,Week 2,2,Sodium (mmol/L),SODIUM,5,CHEMISTRY,140,140,143,143,Normal,Normal,8-22 DAYS,15,2,8,22,DAYS,,Y
BBC,BBC-10-148,148,10,79,ARM B,2,ARM B,2,Y,Y,Y,Y,12DEC2006,07MAR2007,25JAN2007,45,,Week 6,6,Sodium (mmol/L),SODIUM,5,CHEMISTRY,137,137,143,143,Normal,Normal,37-50 DAYS,43,2,37,50,DAYS,,Y
BBC,BBC-10-148,148,10,80,ARM B,2,ARM B,2,Y,Y,Y,Y,12DEC2006,07MAR2007,15MAR2007,94,,Week 12,12,Sodium (mmol/L),SODIUM,5,CHEMISTRY,141,141,143,143,Normal,Normal,72-99 DAYS,85,9,72,99,DAYS,,
BBC,BBC-10-148,148,10,16,ARM B,2,ARM B,2,Y,Y,Y,Y,12DEC2006,07MAR2007,30NOV2006,-12,,,,"Aspartate Aminotransferase, AST (U/L)",AST,6,CHEMISTRY,27,27,24,24,Normal,Normal,,,,,,,,
BBC,BBC-10-148,148,10,17,ARM B,2,ARM B,2,Y,Y,Y,Y,12DEC2006,07MAR2007,12DEC2006,1,,Day 1 Baseline,0,"Aspartate Aminotransferase, AST (U/L)",AST,6,CHEMISTRY,24,24,24,24,Normal,Normal,,,,,,,Y,Y
BBC,BBC-10-148,148,10,18,ARM B,2,ARM B,2,Y,Y,Y,Y,12DEC2006,07MAR2007,28DEC2006,17,,Week 2,2,"Aspartate Aminotransferase, AST (U/L)",AST,6,CHEMISTRY,30,30,24,24,Normal,Normal,8-22 DAYS,15,2,8,22,DAYS,,Y
BBC,BBC-10-148,148,10,19,ARM B,2,ARM B,2,Y,Y,Y,Y,12DEC2006,07MAR2007,25JAN2007,45,,Week 6,6,"Aspartate Aminotransferase, AST (U/L)",AST,6,CHEMISTRY,20,20,24,24,Normal,Normal,37-50 DAYS,43,2,37,50,DAYS,,Y
BBC,BBC-10-148,148,10,20,ARM B,2,ARM B,2,Y,Y,Y,Y,12DEC2006,07MAR2007,15MAR2007,94,,Week 12,12,"Aspartate Aminotransferase, AST (U/L)",AST,6,CHEMISTRY,24,24,24,24,Normal,Normal,72-99 DAYS,85,9,72,99,DAYS,,
BBC,BBC-10-148,148,10,11,ARM B,2,ARM B,2,Y,Y,Y,Y,12DEC2006,07MAR2007,30NOV2006,-12,,,,"Alanine Aminotransferase, ALT (U/L)",ALT,7,CHEMISTRY,38,38,34,34,Normal,Normal,,,,,,,,
BBC,BBC-10-148,148,10,12,ARM B,2,ARM B,2,Y,Y,Y,Y,12DEC2006,07MAR2007,12DEC2006,1,,Day 1 Baseline,0,"Alanine Aminotransferase, ALT (U/L)",ALT,7,CHEMISTRY,34,34,34,34,Normal,Normal,,,,,,,Y,Y
BBC,BBC-10-148,148,10,13,ARM B,2,ARM B,2,Y,Y,Y,Y,12DEC2006,07MAR2007,28DEC2006,17,,Week 2,2,"Alanine Aminotransferase, ALT (U/L)",ALT,7,CHEMISTRY,48,48,34,34,High,Normal,8-22 DAYS,15,2,8,22,DAYS,,Y
BBC,BBC-10-148,148,10,14,ARM B,2,ARM B,2,Y,Y,Y,Y,12DEC2006,07MAR2007,25JAN2007,45,,Week 6,6,"Alanine Aminotransferase, ALT (U/L)",ALT,7,CHEMISTRY,42,42,34,34,Normal,Normal,37-50 DAYS,43,2,37,50,DAYS,,Y
BBC,BBC-10-148,148,10,15,ARM B,2,ARM B,2,Y,Y,Y,Y,12DEC2006,07MAR2007,15MAR2007,94,,Week 12,12,"Alanine Aminotransferase, ALT (U/L)",ALT,7,CHEMISTRY,36,36,34,34,Normal,Normal,72-99 DAYS,85,9,72,99,DAYS,,
BBC,BBC-10-148,148,10,26,ARM B,2,ARM B,2,Y,Y,Y,Y,12DEC2006,07MAR2007,30NOV2006,-12,,,,"Blood Urea Nitrogen, BUN (mg/dL)",BUN,8,CHEMISTRY,19,19,21,21,Normal,Normal,,,,,,,,
BBC,BBC-10-148,148,10,27,ARM B,2,ARM B,2,Y,Y,Y,Y,12DEC2006,07MAR2007,12DEC2006,1,,Day 1 Baseline,0,"Blood Urea Nitrogen, BUN (mg/dL)",BUN,8,CHEMISTRY,21,21,21,21,Normal,Normal,,,,,,,Y,Y
BBC,BBC-10-148,148,10,28,ARM B,2,ARM B,2,Y,Y,Y,Y,12DEC2006,07MAR2007,28DEC2006,17,,Week 2,2,"Blood Urea Nitrogen, BUN (mg/dL)",BUN,8,CHEMISTRY,19,19,21,21,Normal,Normal,8-22 DAYS,15,2,8,22,DAYS,,Y
BBC,BBC-10-148,148,10,29,ARM B,2,ARM B,2,Y,Y,Y,Y,12DEC2006,07MAR2007,25JAN2007,45,,Week 6,6,"Blood Urea Nitrogen, BUN (mg/dL)",BUN,8,CHEMISTRY,23,23,21,21,Normal,Normal,37-50 DAYS,43,2,37,50,DAYS,,Y
BBC,BBC-10-148,148,10,30,ARM B,2,ARM B,2,Y,Y,Y,Y,12DEC2006,07MAR2007,15MAR2007,94,,Week 12,12,"Blood Urea Nitrogen, BUN (mg/dL)",BUN,8,CHEMISTRY,19,19,21,21,Normal,Normal,72-99 DAYS,85,9,72,99,DAYS,,
BBC,BBC-10-148,148,10,51,ARM B,2,ARM B,2,Y,Y,Y,Y,12DEC2006,07MAR2007,30NOV2006,-12,,,,Glucose (mg/dL),GLUC,9,CHEMISTRY,81,81,83,83,Normal,Normal,,,,,,,,
BBC,BBC-10-148,148,10,52,ARM B,2,ARM B,2,Y,Y,Y,Y,12DEC2006,07MAR2007,12DEC2006,1,,Day 1 Baseline,0,Glucose (mg/dL),GLUC,9,CHEMISTRY,83,83,83,83,Normal,Normal,,,,,,,Y,Y
BBC,BBC-10-148,148,10,53,ARM B,2,ARM B,2,Y,Y,Y,Y,12DEC2006,07MAR2007,28DEC2006,17,,Week 2,2,Glucose (mg/dL),GLUC,9,CHEMISTRY,79,79,83,83,Normal,Normal,8-22 DAYS,15,2,8,22,DAYS,,Y
BBC,BBC-10-148,148,10,54,ARM B,2,ARM B,2,Y,Y,Y,Y,12DEC2006,07MAR2007,25JAN2007,45,,Week 6,6,Glucose (mg/dL),GLUC,9,CHEMISTRY,95,95,83,83,Normal,Normal,37-50 DAYS,43,2,37,50,DAYS,,Y
BBC,BBC-10-148,148,10,55,ARM B,2,ARM B,2,Y,Y,Y,Y,12DEC2006,07MAR2007,15MAR2007,94,,Week 12,12,Glucose (mg/dL),GLUC,9,CHEMISTRY,102,102,83,83,High,Normal,72-99 DAYS,85,9,72,99,DAYS,,
BBC,BBC-10-148,148,10,6,ARM B,2,ARM B,2,Y,Y,Y,Y,12DEC2006,07MAR2007,30NOV2006,-12,,,,Alkaline Phosphatase (U/L),ALP,10,CHEMISTRY,50,50,49,49,Normal,Normal,,,,,,,,
BBC,BBC-10-148,148,10,7,ARM B,2,ARM B,2,Y,Y,Y,Y,12DEC2006,07MAR2007,12DEC2006,1,,Day 1 Baseline,0,Alkaline Phosphatase (U/L),ALP,10,CHEMISTRY,49,49,49,49,Normal,Normal,,,,,,,Y,Y
BBC,BBC-10-148,148,10,8,ARM B,2,ARM B,2,Y,Y,Y,Y,12DEC2006,07MAR2007,28DEC2006,17,,Week 2,2,Alkaline Phosphatase (U/L),ALP,10,CHEMISTRY,51,51,49,49,Normal,Normal,8-22 DAYS,15,2,8,22,DAYS,,Y
BBC,BBC-10-148,148,10,9,ARM B,2,ARM B,2,Y,Y,Y,Y,12DEC2006,07MAR2007,25JAN2007,45,,Week 6,6,Alkaline Phosphatase (U/L),ALP,10,CHEMISTRY,54,54,49,49,Normal,Normal,37-50 DAYS,43,2,37,50,DAYS,,Y
BBC,BBC-10-148,148,10,10,ARM B,2,ARM B,2,Y,Y,Y,Y,12DEC2006,07MAR2007,15MAR2007,94,,Week 12,12,Alkaline Phosphatase (U/L),ALP,10,CHEMISTRY,47,47,49,49,Normal,Normal,72-99 DAYS,85,9,72,99,DAYS,,
BBC,BBC-10-148,148,10,86,ARM B,2,ARM B,2,Y,Y,Y,Y,12DEC2006,07MAR2007,30NOV2006,-12,,,,Uric Acid (mg/dL),URATE,11,CHEMISTRY,6.5,6.5,4.9,4.9,Normal,Normal,,,,,,,,
BBC,BBC-10-148,148,10,87,ARM B,2,ARM B,2,Y,Y,Y,Y,12DEC2006,07MAR2007,12DEC2006,1,,Day 1 Baseline,0,Uric Acid (mg/dL),URATE,11,CHEMISTRY,4.9,4.9,4.9,4.9,Normal,Normal,,,,,,,Y,Y
BBC,BBC-10-148,148,10,88,ARM B,2,ARM B,2,Y,Y,Y,Y,12DEC2006,07MAR2007,28DEC2006,17,,Week 2,2,Uric Acid (mg/dL),URATE,11,CHEMISTRY,5.6,5.6,4.9,4.9,Normal,Normal,8-22 DAYS,15,2,8,22,DAYS,,Y
BBC,BBC-10-148,148,10,89,ARM B,2,ARM B,2,Y,Y,Y,Y,12DEC2006,07MAR2007,25JAN2007,45,,Week 6,6,Uric Acid (mg/dL),URATE,11,CHEMISTRY,5.8,5.8,4.9,4.9,Normal,Normal,37-50 DAYS,43,2,37,50,DAYS,,Y
BBC,BBC-10-148,148,10,90,ARM B,2,ARM B,2,Y,Y,Y,Y,12DEC2006,07MAR2007,15MAR2007,94,,Week 12,12,Uric Acid (mg/dL),URATE,11,CHEMISTRY,5.9,5.9,4.9,4.9,Normal,Normal,72-99 DAYS,85,9,72,99,DAYS,,
BBC,BBC-10-148,148,10,66,ARM B,2,ARM B,2,Y,Y,Y,Y,12DEC2006,07MAR2007,30NOV2006,-12,,,,Inorganic Phosphorus (mg/dL),PHOS,12,CHEMISTRY,3.3,3.3,3.7,3.7,Normal,Normal,,,,,,,,
BBC,BBC-10-148,148,10,67,ARM B,2,ARM B,2,Y,Y,Y,Y,12DEC2006,07MAR2007,12DEC2006,1,,Day 1 Baseline,0,Inorganic Phosphorus (mg/dL),PHOS,12,CHEMISTRY,3.7,3.7,3.7,3.7,Normal,Normal,,,,,,,Y,Y
BBC,BBC-10-148,148,10,68,ARM B,2,ARM B,2,Y,Y,Y,Y,12DEC2006,07MAR2007,28DEC2006,17,,Week 2,2,Inorganic Phosphorus (mg/dL),PHOS,12,CHEMISTRY,3.4,3.4,3.7,3.7,Normal,Normal,8-22 DAYS,15,2,8,22,DAYS,,Y
BBC,BBC-10-148,148,10,69,ARM B,2,ARM B,2,Y,Y,Y,Y,12DEC2006,07MAR2007,25JAN2007,45,,Week 6,6,Inorganic Phosphorus (mg/dL),PHOS,12,CHEMISTRY,3.7,3.7,3.7,3.7,Normal,Normal,37-50 DAYS,43,2,37,50,DAYS,,Y
BBC,BBC-10-148,148,10,70,ARM B,2,ARM B,2,Y,Y,Y,Y,12DEC2006,07MAR2007,15MAR2007,94,,Week 12,12,Inorganic Phosphorus (mg/dL),PHOS,12,CHEMISTRY,3.3,3.3,3.7,3.7,Normal,Normal,72-99 DAYS,85,9,72,99,DAYS,,
BBC,BBC-10-148,148,10,1,ARM B,2,ARM B,2,Y,Y,Y,Y,12DEC2006,07MAR2007,30NOV2006,-12,,,,Albumin (g/dL),ALB,13,CHEMISTRY,4.5,4.5,4.5,4.5,Normal,Normal,,,,,,,,
BBC,BBC-10-148,148,10,2,ARM B,2,ARM B,2,Y,Y,Y,Y,12DEC2006,07MAR2007,12DEC2006,1,,Day 1 Baseline,0,Albumin (g/dL),ALB,13,CHEMISTRY,4.5,4.5,4.5,4.5,Normal,Normal,,,,,,,Y,Y
BBC,BBC-10-148,148,10,3,ARM B,2,ARM B,2,Y,Y,Y,Y,12DEC2006,07MAR2007,28DEC2006,17,,Week 2,2,Albumin (g/dL),ALB,13,CHEMISTRY,4.5,4.5,4.5,4.5,Normal,Normal,8-22 DAYS,15,2,8,22,DAYS,,Y
BBC,BBC-10-148,148,10,4,ARM B,2,ARM B,2,Y,Y,Y,Y,12DEC2006,07MAR2007,25JAN2007,45,,Week 6,6,Albumin (g/dL),ALB,13,CHEMISTRY,4.3,4.3,4.5,4.5,Normal,Normal,37-50 DAYS,43,2,37,50,DAYS,,Y
BBC,BBC-10-148,148,10,5,ARM B,2,ARM B,2,Y,Y,Y,Y,12DEC2006,07MAR2007,15MAR2007,94,,Week 12,12,Albumin (g/dL),ALB,13,CHEMISTRY,4.3,4.3,4.5,4.5,Normal,Normal,72-99 DAYS,85,9,72,99,DAYS,,
BBC,BBC-10-148,148,10,71,ARM B,2,ARM B,2,Y,Y,Y,Y,12DEC2006,07MAR2007,30NOV2006,-12,,,,Total Protein (g/dL),PROT,14,CHEMISTRY,7,7.0,7,7.0,Normal,Normal,,,,,,,,
BBC,BBC-10-148,148,10,72,ARM B,2,ARM B,2,Y,Y,Y,Y,12DEC2006,07MAR2007,12DEC2006,1,,Day 1 Baseline,0,Total Protein (g/dL),PROT,14,CHEMISTRY,7,7.0,7,7.0,Normal,Normal,,,,,,,Y,Y
BBC,BBC-10-148,148,10,73,ARM B,2,ARM B,2,Y,Y,Y,Y,12DEC2006,07MAR2007,28DEC2006,17,,Week 2,2,Total Protein (g/dL),PROT,14,CHEMISTRY,7,7.0,7,7.0,Normal,Normal,8-22 DAYS,15,2,8,22,DAYS,,Y
BBC,BBC-10-148,148,10,74,ARM B,2,ARM B,2,Y,Y,Y,Y,12DEC2006,07MAR2007,25JAN2007,45,,Week 6,6,Total Protein (g/dL),PROT,14,CHEMISTRY,7.4,7.4,7,7.0,Normal,Normal,37-50 DAYS,43,2,37,50,DAYS,,Y
