STUDYID,USUBJID,SUBJID,SITEID,QSSEQ,TRTP,TRTPN,TRTA,TRTAN,RANDFL,SAFFL,MITTFL,PPROTFL,TRTSDT,TRTEDT,VISITNUM,VISIT,QSDTC,ADT,ADY,ADTF,AVISIT,AVISITN,PARAM,PARAMCD,PARAMN,AVAL,BASE,CHG,AWRANGE,AWTARGET,AWTDIFF,AWLO,AWHI,AWU,ABLFL,ANL01FL
BBC,BBC-10-041,041,10,13,ARM B,2,ARM B,2,Y,N,N,N,,,1,DAY 1,2006-12-20,20DEC2006,,,,,Pruritis Assessment,PRURPS,1,4,,,,,,,,,,
BBC,BBC-10-042,042,10,91,ARM C,3,ARM C,3,Y,Y,Y,Y,10JAN2007,13APR2007,16,WEEK 16,2007-05-02,02MAY2007,113,,,,Pruritis Assessment,PRURPS,1,0,0,0,,,,,,,,
BBC,BBC-10-042,042,10,85,ARM C,3,ARM C,3,Y,Y,Y,Y,10JAN2007,13APR2007,1,DAY 1,2007-01-10,10JAN2007,1,,Day 1 Baseline,0,Pruritis Assessment,PRURPS,1,0,0,,,,,,,,Y,Y
BBC,BBC-10-042,042,10,86,ARM C,3,ARM C,3,Y,Y,Y,Y,10JAN2007,13APR2007,2,WEEK 2,2007-01-24,24JAN2007,15,,Week 2,2,Pruritis Assessment,PRURPS,1,0,0,0,8-22 DAYS,15,0,8,22,DAYS,,Y
BBC,BBC-10-042,042,10,87,ARM C,3,ARM C,3,Y,Y,Y,Y,10JAN2007,13APR2007,4,WEEK 4,2007-02-09,09FEB2007,31,,Week 4,4,Pruritis Assessment,PRURPS,1,1,0,1,23-36 DAYS,29,2,23,36,DAYS,,Y
BBC,BBC-10-042,042,10,88,ARM C,3,ARM C,3,Y,Y,Y,Y,10JAN2007,13APR2007,6,WEEK 6,2007-02-23,23FEB2007,45,,Week 6,6,Pruritis Assessment,PRURPS,1,0,0,0,37-50 DAYS,43,2,37,50,DAYS,,Y
BBC,BBC-10-042,042,10,89,ARM C,3,ARM C,3,Y,Y,Y,Y,10JAN2007,13APR2007,8,WEEK 8,2007-03-12,12MAR2007,62,,Week 8,8,Pruritis Assessment,PRURPS,1,0,0,0,51-71 DAYS,57,5,51,71,DAYS,,Y
BBC,BBC-10-042,042,10,90,ARM C,3,ARM C,3,Y,Y,Y,Y,10JAN2007,13APR2007,12,WEEK 12,2007-04-13,13APR2007,94,,Week 12,12,Pruritis Assessment,PRURPS,1,0,0,0,72-99 DAYS,85,9,72,99,DAYS,,Y
BBC,BBC-10-043,043,10,91,ARM A,1,ARM A,1,Y,Y,Y,Y,09FEB2007,03MAY2007,16,WEEK 16,2007-05-17,17MAY2007,98,,,,Pruritis Assessment,PRURPS,1,2,1,1,,,,,,,,
BBC,BBC-10-043,043,10,85,ARM A,1,ARM A,1,Y,Y,Y,Y,09FEB2007,03MAY2007,1,DAY 1,2007-02-09,09FEB2007,1,,Day 1 Baseline,0,Pruritis Assessment,PRURPS,1,1,1,,,,,,,,Y,Y
BBC,BBC-10-043,043,10,86,ARM A,1,ARM A,1,Y,Y,Y,Y,09FEB2007,03MAY2007,2,WEEK 2,2007-02-23,23FEB2007,15,,Week 2,2,Pruritis Assessment,PRURPS,1,1,1,0,8-22 DAYS,15,0,8,22,DAYS,,Y
BBC,BBC-10-043,043,10,87,ARM A,1,ARM A,1,Y,Y,Y,Y,09FEB2007,03MAY2007,4,WEEK 4,2007-03-12,12MAR2007,32,,Week 4,4,Pruritis Assessment,PRURPS,1,0,1,-1,23-36 DAYS,29,3,23,36,DAYS,,Y
BBC,BBC-10-043,043,10,88,ARM A,1,ARM A,1,Y,Y,Y,Y,09FEB2007,03MAY2007,6,WEEK 6,2007-03-23,23MAR2007,43,,Week 6,6,Pruritis Assessment,PRURPS,1,0,1,-1,37-50 DAYS,43,0,37,50,DAYS,,Y
BBC,BBC-10-043,043,10,89,ARM A,1,ARM A,1,Y,Y,Y,Y,09FEB2007,03MAY2007,8,WEEK 8,2007-04-06,06APR2007,57,,Week 8,8,Pruritis Assessment,PRURPS,1,0,1,-1,51-71 DAYS,57,0,51,71,DAYS,,Y
BBC,BBC-10-043,043,10,90,ARM A,1,ARM A,1,Y,Y,Y,Y,09FEB2007,03MAY2007,12,WEEK 12,2007-05-03,03MAY2007,84,,Week 12,12,Pruritis Assessment,PRURPS,1,0,1,-1,72-99 DAYS,85,1,72,99,DAYS,,Y
BBC,BBC-10-145,145,10,78,ARM A,1,ARM A,1,Y,Y,Y,N,08DEC2006,30MAR2007,12,WEEK 12,2007-03-30,30MAR2007,113,,,,Pruritis Assessment,PRURPS,1,1,1,0,,,,,,,,
BBC,BBC-10-145,145,10,73,ARM A,1,ARM A,1,Y,Y,Y,N,08DEC2006,30MAR2007,1,DAY 1,2006-12-08,08DEC2006,1,,Day 1 Baseline,0,Pruritis Assessment,PRURPS,1,1,1,,,,,,,,Y,Y
BBC,BBC-10-145,145,10,74,ARM A,1,ARM A,1,Y,Y,Y,N,08DEC2006,30MAR2007,2,WEEK 2,2006-12-20,20DEC2006,13,,Week 2,2,Pruritis Assessment,PRURPS,1,0,1,-1,8-22 DAYS,15,2,8,22,DAYS,,Y
BBC,BBC-10-145,145,10,75,ARM A,1,ARM A,1,Y,Y,Y,N,08DEC2006,30MAR2007,4,WEEK 4,2007-01-05,05JAN2007,29,,Week 4,4,Pruritis Assessment,PRURPS,1,3,1,2,23-36 DAYS,29,0,23,36,DAYS,,Y
BBC,BBC-10-145,145,10,76,ARM A,1,ARM A,1,Y,Y,Y,N,08DEC2006,30MAR2007,6,WEEK 6,2007-01-23,23JAN2007,47,,Week 6,6,Pruritis Assessment,PRURPS,1,1,1,0,37-50 DAYS,43,4,37,50,DAYS,,Y
BBC,BBC-10-145,145,10,77,ARM A,1,ARM A,1,Y,Y,Y,N,08DEC2006,30MAR2007,8,WEEK 8,2007-02-16,16FEB2007,71,,Week 8,8,Pruritis Assessment,PRURPS,1,0,1,-1,51-71 DAYS,57,14,51,71,DAYS,,Y
BBC,BBC-10-146,146,10,85,ARM D,4,ARM D,4,Y,Y,Y,Y,11DEC2006,16MAR2007,1,DAY 1,2006-12-11,11DEC2006,1,,Day 1 Baseline,0,Pruritis Assessment,PRURPS,1,4,4,,,,,,,,Y,Y
BBC,BBC-10-146,146,10,86,ARM D,4,ARM D,4,Y,Y,Y,Y,11DEC2006,16MAR2007,2,WEEK 2,2006-12-29,29DEC2006,19,,Week 2,2,Pruritis Assessment,PRURPS,1,3,4,-1,8-22 DAYS,15,4,8,22,DAYS,,Y
BBC,BBC-10-146,146,10,87,ARM D,4,ARM D,4,Y,Y,Y,Y,11DEC2006,16MAR2007,4,WEEK 4,2007-01-11,11JAN2007,32,,Week 4,4,Pruritis Assessment,PRURPS,1,1,4,-3,23-36 DAYS,29,3,23,36,DAYS,,Y
BBC,BBC-10-146,146,10,88,ARM D,4,ARM D,4,Y,Y,Y,Y,11DEC2006,16MAR2007,6,WEEK 6,2007-01-25,25JAN2007,46,,Week 6,6,Pruritis Assessment,PRURPS,1,0,4,-4,37-50 DAYS,43,3,37,50,DAYS,,Y
BBC,BBC-10-146,146,10,89,ARM D,4,ARM D,4,Y,Y,Y,Y,11DEC2006,16MAR2007,8,WEEK 8,2007-02-08,08FEB2007,60,,Week 8,8,Pruritis Assessment,PRURPS,1,2,4,-2,51-71 DAYS,57,3,51,71,DAYS,,Y
BBC,BBC-10-146,146,10,90,ARM D,4,ARM D,4,Y,Y,Y,Y,11DEC2006,16MAR2007,12,WEEK 12,2007-03-16,16MAR2007,96,,Week 12,12,Pruritis Assessment,PRURPS,1,0,4,-4,72-99 DAYS,85,11,72,99,DAYS,,Y
BBC,BBC-10-146,146,10,91,ARM D,4,ARM D,4,Y,Y,Y,Y,11DEC2006,16MAR2007,16,WEEK 16,2007-04-09,09APR2007,120,,Week 16,16,Pruritis Assessment,PRURPS,1,0,4,-4,22-36 DAYS POST-LAST-DOSE,124,4,117,131,DAYS,,
BBC,BBC-10-147,147,10,91,ARM C,3,ARM C,3,Y,Y,Y,Y,12DEC2006,18MAR2007,16,WEEK 16,2007-04-02,02APR2007,112,,,,Pruritis Assessment,PRURPS,1,0,3,-3,,,,,,,,
BBC,BBC-10-147,147,10,85,ARM C,3,ARM C,3,Y,Y,Y,Y,12DEC2006,18MAR2007,1,DAY 1,2006-12-12,12DEC2006,1,,Day 1 Baseline,0,Pruritis Assessment,PRURPS,1,3,3,,,,,,,,Y,Y
BBC,BBC-10-147,147,10,86,ARM C,3,ARM C,3,Y,Y,Y,Y,12DEC2006,18MAR2007,2,WEEK 2,2006-12-28,28DEC2006,17,,Week 2,2,Pruritis Assessment,PRURPS,1,2,3,-1,8-22 DAYS,15,2,8,22,DAYS,,Y
BBC,BBC-10-147,147,10,87,ARM C,3,ARM C,3,Y,Y,Y,Y,12DEC2006,18MAR2007,4,WEEK 4,2007-01-15,15JAN2007,35,,Week 4,4,Pruritis Assessment,PRURPS,1,1,3,-2,23-36 DAYS,29,6,23,36,DAYS,,Y
BBC,BBC-10-147,147,10,88,ARM C,3,ARM C,3,Y,Y,Y,Y,12DEC2006,18MAR2007,6,WEEK 6,2007-01-25,25JAN2007,45,,Week 6,6,Pruritis Assessment,PRURPS,1,1,3,-2,37-50 DAYS,43,2,37,50,DAYS,,Y
BBC,BBC-10-147,147,10,89,ARM C,3,ARM C,3,Y,Y,Y,Y,12DEC2006,18MAR2007,8,WEEK 8,2007-02-12,12FEB2007,63,,Week 8,8,Pruritis Assessment,PRURPS,1,1,3,-2,51-71 DAYS,57,6,51,71,DAYS,,Y
BBC,BBC-10-147,147,10,90,ARM C,3,ARM C,3,Y,Y,Y,Y,12DEC2006,18MAR2007,12,WEEK 12,2007-03-19,19MAR2007,98,,Week 12,12,Pruritis Assessment,PRURPS,1,1,3,-2,72-99 DAYS,85,13,72,99,DAYS,,Y
BBC,BBC-10-148,148,10,85,ARM B,2,ARM B,2,Y,Y,Y,Y,12DEC2006,07MAR2007,1,DAY 1,2006-12-12,12DEC2006,1,,Day 1 Baseline,0,Pruritis Assessment,PRURPS,1,1,1,,,,,,,,Y,Y
BBC,BBC-10-148,148,10,86,ARM B,2,ARM B,2,Y,Y,Y,Y,12DEC2006,07MAR2007,2,WEEK 2,2006-12-28,28DEC2006,17,,Week 2,2,Pruritis Assessment,PRURPS,1,0,1,-1,8-22 DAYS,15,2,8,22,DAYS,,Y
BBC,BBC-10-148,148,10,87,ARM B,2,ARM B,2,Y,Y,Y,Y,12DEC2006,07MAR2007,4,WEEK 4,2007-01-11,11JAN2007,31,,Week 4,4,Pruritis Assessment,PRURPS,1,0,1,-1,23-36 DAYS,29,2,23,36,DAYS,,Y
BBC,BBC-10-148,148,10,88,ARM B,2,ARM B,2,Y,Y,Y,Y,12DEC2006,07MAR2007,6,WEEK 6,2007-01-25,25JAN2007,45,,Week 6,6,Pruritis Assessment,PRURPS,1,0,1,-1,37-50 DAYS,43,2,37,50,DAYS,,Y
BBC,BBC-10-148,148,10,89,ARM B,2,ARM B,2,Y,Y,Y,Y,12DEC2006,07MAR2007,8,WEEK 8,2007-02-08,08FEB2007,59,,Week 8,8,Pruritis Assessment,PRURPS,1,0,1,-1,51-71 DAYS,57,2,51,71,DAYS,,Y
BBC,BBC-10-148,148,10,90,ARM B,2,ARM B,2,Y,Y,Y,Y,12DEC2006,07MAR2007,12,WEEK 12,2007-03-15,15MAR2007,94,,Week 12,12,Pruritis Assessment,PRURPS,1,0,1,-1,72-99 DAYS,85,9,72,99,DAYS,,
BBC,BBC-10-148,148,10,91,ARM B,2,ARM B,2,Y,Y,Y,Y,12DEC2006,07MAR2007,16,WEEK 16,2007-04-03,03APR2007,113,,Week 16,16,Pruritis Assessment,PRURPS,1,0,1,-1,22-36 DAYS POST-LAST-DOSE,114,1,107,121,DAYS,,
BBC,BBC-10-149,149,10,85,ARM A,1,ARM A,1,Y,Y,Y,Y,13DEC2006,13MAR2007,1,DAY 1,2006-12-13,13DEC2006,1,,Day 1 Baseline,0,Pruritis Assessment,PRURPS,1,0,0,,,,,,,,Y,Y
BBC,BBC-10-149,149,10,86,ARM A,1,ARM A,1,Y,Y,Y,Y,13DEC2006,13MAR2007,2,WEEK 2,2006-12-29,29DEC2006,17,,Week 2,2,Pruritis Assessment,PRURPS,1,0,0,0,8-22 DAYS,15,2,8,22,DAYS,,Y
BBC,BBC-10-149,149,10,87,ARM A,1,ARM A,1,Y,Y,Y,Y,13DEC2006,13MAR2007,4,WEEK 4,2007-01-12,12JAN2007,31,,Week 4,4,Pruritis Assessment,PRURPS,1,0,0,0,23-36 DAYS,29,2,23,36,DAYS,,Y
BBC,BBC-10-149,149,10,88,ARM A,1,ARM A,1,Y,Y,Y,Y,13DEC2006,13MAR2007,6,WEEK 6,2007-01-26,26JAN2007,45,,Week 6,6,Pruritis Assessment,PRURPS,1,0,0,0,37-50 DAYS,43,2,37,50,DAYS,,Y
BBC,BBC-10-149,149,10,89,ARM A,1,ARM A,1,Y,Y,Y,Y,13DEC2006,13MAR2007,8,WEEK 8,2007-02-12,12FEB2007,62,,Week 8,8,Pruritis Assessment,PRURPS,1,1,0,1,51-71 DAYS,57,5,51,71,DAYS,,Y
BBC,BBC-10-149,149,10,90,ARM A,1,ARM A,1,Y,Y,Y,Y,13DEC2006,13MAR2007,12,WEEK 12,2007-03-13,13MAR2007,91,,Week 12,12,Pruritis Assessment,PRURPS,1,0,0,0,72-99 DAYS,85,6,72,99,DAYS,,Y
BBC,BBC-10-149,149,10,91,ARM A,1,ARM A,1,Y,Y,Y,Y,13DEC2006,13MAR2007,16,WEEK 16,2007-04-16,16APR2007,125,,Week 16,16,Pruritis Assessment,PRURPS,1,0,0,0,22-36 DAYS POST-LAST-DOSE,119,6,112,126,DAYS,,
BBC,BBC-10-150,150,10,85,ARM D,4,ARM D,4,Y,Y,Y,Y,14DEC2006,13MAR2007,1,DAY 1,2006-12-14,14DEC2006,1,,Day 1 Baseline,0,Pruritis Assessment,PRURPS,1,1,1,,,,,,,,Y,Y
BBC,BBC-10-150,150,10,86,ARM D,4,ARM D,4,Y,Y,Y,Y,14DEC2006,13MAR2007,2,WEEK 2,2007-01-04,04JAN2007,22,,Week 2,2,Pruritis Assessment,PRURPS,1,1,1,0,8-22 DAYS,15,7,8,22,DAYS,,Y
BBC,BBC-10-150,150,10,87,ARM D,4,ARM D,4,Y,Y,Y,Y,14DEC2006,13MAR2007,4,WEEK 4,2007-01-16,16JAN2007,34,,Week 4,4,Pruritis Assessment,PRURPS,1,2,1,1,23-36 DAYS,29,5,23,36,DAYS,,Y
BBC,BBC-10-150,150,10,88,ARM D,4,ARM D,4,Y,Y,Y,Y,14DEC2006,13MAR2007,6,WEEK 6,2007-01-30,30JAN2007,48,,Week 6,6,Pruritis Assessment,PRURPS,1,0,1,-1,37-50 DAYS,43,5,37,50,DAYS,,Y
BBC,BBC-10-150,150,10,89,ARM D,4,ARM D,4,Y,Y,Y,Y,14DEC2006,13MAR2007,8,WEEK 8,2007-02-07,07FEB2007,56,,Week 8,8,Pruritis Assessment,PRURPS,1,1,1,0,51-71 DAYS,57,1,51,71,DAYS,,Y
BBC,BBC-10-150,150,10,90,ARM D,4,ARM D,4,Y,Y,Y,Y,14DEC2006,13MAR2007,12,WEEK 12,2007-03-13,13MAR2007,90,,Week 12,12,Pruritis Assessment,PRURPS,1,1,1,0,72-99 DAYS,85,5,72,99,DAYS,,Y
BBC,BBC-10-150,150,10,91,ARM D,4,ARM D,4,Y,Y,Y,Y,14DEC2006,13MAR2007,16,WEEK 16,2007-04-17,17APR2007,125,,Week 16,16,Pruritis Assessment,PRURPS,1,3,1,2,22-36 DAYS POST-LAST-DOSE,118,7,111,125,DAYS,,
BBC,BBC-10-151,151,10,85,ARM B,2,ARM B,2,Y,Y,Y,Y,28DEC2006,22MAR2007,1,DAY 1,2006-12-28,28DEC2006,1,,Day 1 Baseline,0,Pruritis Assessment,PRURPS,1,5,5,,,,,,,,Y,Y
BBC,BBC-10-151,151,10,86,ARM B,2,ARM B,2,Y,Y,Y,Y,28DEC2006,22MAR2007,2,WEEK 2,2007-01-12,12JAN2007,16,,Week 2,2,Pruritis Assessment,PRURPS,1,1,5,-4,8-22 DAYS,15,1,8,22,DAYS,,Y
BBC,BBC-10-151,151,10,87,ARM B,2,ARM B,2,Y,Y,Y,Y,28DEC2006,22MAR2007,4,WEEK 4,2007-01-25,25JAN2007,29,,Week 4,4,Pruritis Assessment,PRURPS,1,2,5,-3,23-36 DAYS,29,0,23,36,DAYS,,Y
BBC,BBC-10-151,151,10,88,ARM B,2,ARM B,2,Y,Y,Y,Y,28DEC2006,22MAR2007,6,WEEK 6,2007-02-08,08FEB2007,43,,Week 6,6,Pruritis Assessment,PRURPS,1,2,5,-3,37-50 DAYS,43,0,37,50,DAYS,,Y
BBC,BBC-10-151,151,10,89,ARM B,2,ARM B,2,Y,Y,Y,Y,28DEC2006,22MAR2007,8,WEEK 8,2007-02-22,22FEB2007,57,,Week 8,8,Pruritis Assessment,PRURPS,1,3,5,-2,51-71 DAYS,57,0,51,71,DAYS,,Y
BBC,BBC-10-151,151,10,90,ARM B,2,ARM B,2,Y,Y,Y,Y,28DEC2006,22MAR2007,12,WEEK 12,2007-03-22,22MAR2007,85,,Week 12,12,Pruritis Assessment,PRURPS,1,1,5,-4,72-99 DAYS,85,0,72,99,DAYS,,Y
BBC,BBC-10-151,151,10,91,ARM B,2,ARM B,2,Y,Y,Y,Y,28DEC2006,22MAR2007,16,WEEK 16,2007-04-19,19APR2007,113,,Week 16,16,Pruritis Assessment,PRURPS,1,4,5,-1,22-36 DAYS POST-LAST-DOSE,113,0,106,120,DAYS,,
BBC,BBC-10-152,152,10,85,ARM C,3,ARM C,3,Y,Y,Y,Y,08JAN2007,04APR2007,1,DAY 1,2007-01-08,08JAN2007,1,,Day 1 Baseline,0,Pruritis Assessment,PRURPS,1,1,1,,,,,,,,Y,Y
BBC,BBC-10-152,152,10,86,ARM C,3,ARM C,3,Y,Y,Y,Y,08JAN2007,04APR2007,2,WEEK 2,2007-01-23,23JAN2007,16,,Week 2,2,Pruritis Assessment,PRURPS,1,2,1,1,8-22 DAYS,15,1,8,22,DAYS,,Y
BBC,BBC-10-152,152,10,87,ARM C,3,ARM C,3,Y,Y,Y,Y,08JAN2007,04APR2007,4,WEEK 4,2007-02-13,13FEB2007,37,,Week 6,6,Pruritis Assessment,PRURPS,1,0,1,-1,37-50 DAYS,43,6,37,50,DAYS,,
BBC,BBC-10-152,152,10,88,ARM C,3,ARM C,3,Y,Y,Y,Y,08JAN2007,04APR2007,6,WEEK 6,2007-02-23,23FEB2007,47,,Week 6,6,Pruritis Assessment,PRURPS,1,0,1,-1,37-50 DAYS,43,4,37,50,DAYS,,Y
BBC,BBC-10-152,152,10,89,ARM C,3,ARM C,3,Y,Y,Y,Y,08JAN2007,04APR2007,8,WEEK 8,2007-03-12,12MAR2007,64,,Week 8,8,Pruritis Assessment,PRURPS,1,0,1,-1,51-71 DAYS,57,7,51,71,DAYS,,Y
BBC,BBC-10-152,152,10,90,ARM C,3,ARM C,3,Y,Y,Y,Y,08JAN2007,04APR2007,12,WEEK 12,2007-04-04,04APR2007,87,,Week 12,12,Pruritis Assessment,PRURPS,1,0,1,-1,72-99 DAYS,85,2,72,99,DAYS,,Y
BBC,BBC-10-152,152,10,91,ARM C,3,ARM C,3,Y,Y,Y,Y,08JAN2007,04APR2007,16,WEEK 16,2007-04-30,30APR2007,113,,Week 16,16,Pruritis Assessment,PRURPS,1,1,1,0,22-36 DAYS POST-LAST-DOSE,115,2,108,122,DAYS,,
BBC,BBC-11-048,048,11,85,ARM B,2,ARM B,2,Y,Y,Y,Y,18JAN2007,09APR2007,1,DAY 1,2007-01-18,18JAN2007,1,,Day 1 Baseline,0,Pruritis Assessment,PRURPS,1,5,5,,,,,,,,Y,Y
BBC,BBC-11-048,048,11,86,ARM B,2,ARM B,2,Y,Y,Y,Y,18JAN2007,09APR2007,2,WEEK 2,2007-02-01,01FEB2007,15,,Week 2,2,Pruritis Assessment,PRURPS,1,3,5,-2,8-22 DAYS,15,0,8,22,DAYS,,Y
BBC,BBC-11-048,048,11,87,ARM B,2,ARM B,2,Y,Y,Y,Y,18JAN2007,09APR2007,4,WEEK 4,2007-02-14,14FEB2007,28,,Week 4,4,Pruritis Assessment,PRURPS,1,2,5,-3,23-36 DAYS,29,1,23,36,DAYS,,Y
BBC,BBC-11-048,048,11,88,ARM B,2,ARM B,2,Y,Y,Y,Y,18JAN2007,09APR2007,6,WEEK 6,2007-03-01,01MAR2007,43,,Week 6,6,Pruritis Assessment,PRURPS,1,2,5,-3,37-50 DAYS,43,0,37,50,DAYS,,Y
BBC,BBC-11-048,048,11,89,ARM B,2,ARM B,2,Y,Y,Y,Y,18JAN2007,09APR2007,8,WEEK 8,2007-03-15,15MAR2007,57,,Week 8,8,Pruritis Assessment,PRURPS,1,1,5,-4,51-71 DAYS,57,0,51,71,DAYS,,Y
BBC,BBC-11-048,048,11,90,ARM B,2,ARM B,2,Y,Y,Y,Y,18JAN2007,09APR2007,12,WEEK 12,2007-04-10,10APR2007,83,,Week 12,12,Pruritis Assessment,PRURPS,1,2,5,-3,72-99 DAYS,85,2,72,99,DAYS,,Y
BBC,BBC-11-048,048,11,91,ARM B,2,ARM B,2,Y,Y,Y,Y,18JAN2007,09APR2007,16,WEEK 16,2007-05-08,08MAY2007,111,,Week 16,16,Pruritis Assessment,PRURPS,1,2,5,-3,22-36 DAYS POST-LAST-DOSE,110,1,103,117,DAYS,,
BBC,BBC-11-093,093,11,85,ARM B,2,ARM B,2,Y,Y,Y,Y,08NOV2006,31JAN2007,1,DAY 1,2006-11-08,08NOV2006,1,,Day 1 Baseline,0,Pruritis Assessment,PRURPS,1,1,1,,,,,,,,Y,Y
BBC,BBC-11-093,093,11,86,ARM B,2,ARM B,2,Y,Y,Y,Y,08NOV2006,31JAN2007,2,WEEK 2,2006-11-21,21NOV2006,14,,Week 2,2,Pruritis Assessment,PRURPS,1,0,1,-1,8-22 DAYS,15,1,8,22,DAYS,,Y
BBC,BBC-11-093,093,11,87,ARM B,2,ARM B,2,Y,Y,Y,Y,08NOV2006,31JAN2007,4,WEEK 4,2006-12-06,06DEC2006,29,,Week 4,4,Pruritis Assessment,PRURPS,1,0,1,-1,23-36 DAYS,29,0,23,36,DAYS,,Y
BBC,BBC-11-093,093,11,88,ARM B,2,ARM B,2,Y,Y,Y,Y,08NOV2006,31JAN2007,6,WEEK 6,2006-12-20,20DEC2006,43,,Week 6,6,Pruritis Assessment,PRURPS,1,0,1,-1,37-50 DAYS,43,0,37,50,DAYS,,Y
BBC,BBC-11-093,093,11,89,ARM B,2,ARM B,2,Y,Y,Y,Y,08NOV2006,31JAN2007,8,WEEK 8,2007-01-04,04JAN2007,58,,Week 8,8,Pruritis Assessment,PRURPS,1,0,1,-1,51-71 DAYS,57,1,51,71,DAYS,,Y
BBC,BBC-11-093,093,11,90,ARM B,2,ARM B,2,Y,Y,Y,Y,08NOV2006,31JAN2007,12,WEEK 12,2007-02-01,01FEB2007,86,,Week 12,12,Pruritis Assessment,PRURPS,1,0,1,-1,72-99 DAYS,85,1,72,99,DAYS,,Y
BBC,BBC-11-093,093,11,91,ARM B,2,ARM B,2,Y,Y,Y,Y,08NOV2006,31JAN2007,16,WEEK 16,2007-02-28,28FEB2007,113,,Week 16,16,Pruritis Assessment,PRURPS,1,0,1,-1,22-36 DAYS POST-LAST-DOSE,113,0,106,120,DAYS,,
BBC,BBC-11-094,094,11,85,ARM A,1,ARM A,1,Y,Y,Y,Y,08NOV2006,06FEB2007,1,DAY 1,2006-11-08,08NOV2006,1,,Day 1 Baseline,0,Pruritis Assessment,PRURPS,1,0,0,,,,,,,,Y,Y
BBC,BBC-11-094,094,11,86,ARM A,1,ARM A,1,Y,Y,Y,Y,08NOV2006,06FEB2007,2,WEEK 2,2006-11-20,20NOV2006,13,,Week 2,2,Pruritis Assessment,PRURPS,1,0,0,0,8-22 DAYS,15,2,8,22,DAYS,,Y
BBC,BBC-11-094,094,11,87,ARM A,1,ARM A,1,Y,Y,Y,Y,08NOV2006,06FEB2007,4,WEEK 4,2006-12-04,04DEC2006,27,,Week 4,4,Pruritis Assessment,PRURPS,1,0,0,0,23-36 DAYS,29,2,23,36,DAYS,,Y
BBC,BBC-11-094,094,11,88,ARM A,1,ARM A,1,Y,Y,Y,Y,08NOV2006,06FEB2007,6,WEEK 6,2006-12-18,18DEC2006,41,,Week 6,6,Pruritis Assessment,PRURPS,1,0,0,0,37-50 DAYS,43,2,37,50,DAYS,,Y
BBC,BBC-11-094,094,11,89,ARM A,1,ARM A,1,Y,Y,Y,Y,08NOV2006,06FEB2007,8,WEEK 8,2007-01-04,04JAN2007,58,,Week 8,8,Pruritis Assessment,PRURPS,1,0,0,0,51-71 DAYS,57,1,51,71,DAYS,,Y
BBC,BBC-11-094,094,11,90,ARM A,1,ARM A,1,Y,Y,Y,Y,08NOV2006,06FEB2007,12,WEEK 12,2007-02-07,07FEB2007,92,,Week 12,12,Pruritis Assessment,PRURPS,1,0,0,0,72-99 DAYS,85,7,72,99,DAYS,,Y
BBC,BBC-11-094,094,11,91,ARM A,1,ARM A,1,Y,Y,Y,Y,08NOV2006,06FEB2007,16,WEEK 16,2007-02-28,28FEB2007,113,,Week 16,16,Pruritis Assessment,PRURPS,1,0,0,0,22-36 DAYS POST-LAST-DOSE,119,6,112,126,DAYS,,
BBC,BBC-11-095,095,11,85,ARM C,3,ARM C,3,Y,Y,Y,Y,10NOV2006,31JAN2007,1,DAY 1,2006-11-10,10NOV2006,1,,Day 1 Baseline,0,Pruritis Assessment,PRURPS,1,1,1,,,,,,,,Y,Y
BBC,BBC-11-095,095,11,86,ARM C,3,ARM C,3,Y,Y,Y,Y,10NOV2006,31JAN2007,2,WEEK 2,2006-11-21,21NOV2006,12,,Week 2,2,Pruritis Assessment,PRURPS,1,1,1,0,8-22 DAYS,15,3,8,22,DAYS,,Y
BBC,BBC-11-095,095,11,87,ARM C,3,ARM C,3,Y,Y,Y,Y,10NOV2006,31JAN2007,4,WEEK 4,2006-12-05,05DEC2006,26,,Week 4,4,Pruritis Assessment,PRURPS,1,3,1,2,23-36 DAYS,29,3,23,36,DAYS,,Y
BBC,BBC-11-095,095,11,88,ARM C,3,ARM C,3,Y,Y,Y,Y,10NOV2006,31JAN2007,6,WEEK 6,2006-12-18,18DEC2006,39,,Week 6,6,Pruritis Assessment,PRURPS,1,1,1,0,37-50 DAYS,43,4,37,50,DAYS,,Y
BBC,BBC-11-095,095,11,89,ARM C,3,ARM C,3,Y,Y,Y,Y,10NOV2006,31JAN2007,8,WEEK 8,2007-01-04,04JAN2007,56,,Week 8,8,Pruritis Assessment,PRURPS,1,1,1,0,51-71 DAYS,57,1,51,71,DAYS,,Y
BBC,BBC-11-095,095,11,90,ARM C,3,ARM C,3,Y,Y,Y,Y,10NOV2006,31JAN2007,12,WEEK 12,2007-01-31,31JAN2007,83,,Week 12,12,Pruritis Assessment,PRURPS,1,1,1,0,72-99 DAYS,85,2,72,99,DAYS,,Y
BBC,BBC-11-095,095,11,91,ARM C,3,ARM C,3,Y,Y,Y,Y,10NOV2006,31JAN2007,16,WEEK 16,2007-03-01,01MAR2007,112,,Week 16,16,Pruritis Assessment,PRURPS,1,1,1,0,22-36 DAYS POST-LAST-DOSE,111,1,104,118,DAYS,,
BBC,BBC-11-096,096,11,77,ARM D,4,ARM D,4,Y,Y,Y,N,27NOV2006,05MAR2007,12,WEEK 12,2007-03-06,06MAR2007,100,,,,Pruritis Assessment,PRURPS,1,2,3,-1,,,,,,,,
BBC,BBC-11-096,096,11,73,ARM D,4,ARM D,4,Y,Y,Y,N,27NOV2006,05MAR2007,1,DAY 1,2006-11-27,27NOV2006,1,,Day 1 Baseline,0,Pruritis Assessment,PRURPS,1,3,3,,,,,,,,Y,Y
BBC,BBC-11-096,096,11,74,ARM D,4,ARM D,4,Y,Y,Y,N,27NOV2006,05MAR2007,2,WEEK 2,2006-12-12,12DEC2006,16,,Week 2,2,Pruritis Assessment,PRURPS,1,3,3,0,8-22 DAYS,15,1,8,22,DAYS,,Y
BBC,BBC-11-096,096,11,75,ARM D,4,ARM D,4,Y,Y,Y,N,27NOV2006,05MAR2007,6,WEEK 6,2007-01-08,08JAN2007,43,,Week 6,6,Pruritis Assessment,PRURPS,1,1,3,-2,37-50 DAYS,43,0,37,50,DAYS,,Y
BBC,BBC-11-096,096,11,76,ARM D,4,ARM D,4,Y,Y,Y,N,27NOV2006,05MAR2007,8,WEEK 8,2007-01-24,24JAN2007,59,,Week 8,8,Pruritis Assessment,PRURPS,1,2,3,-1,51-71 DAYS,57,2,51,71,DAYS,,Y
BBC,BBC-11-096,096,11,78,ARM D,4,ARM D,4,Y,Y,Y,N,27NOV2006,05MAR2007,16,WEEK 16,2007-03-27,27MAR2007,121,,Week 16,16,Pruritis Assessment,PRURPS,1,2,3,-1,22-36 DAYS POST-LAST-DOSE,127,6,120,134,DAYS,,
BBC,BBC-11-097,097,11,85,ARM A,1,ARM A,1,Y,Y,Y,N,28NOV2006,20FEB2007,1,DAY 1,2006-11-28,28NOV2006,1,,Day 1 Baseline,0,Pruritis Assessment,PRURPS,1,1,1,,,,,,,,Y,Y
BBC,BBC-11-097,097,11,86,ARM A,1,ARM A,1,Y,Y,Y,N,28NOV2006,20FEB2007,2,WEEK 2,2006-12-12,12DEC2006,15,,Week 2,2,Pruritis Assessment,PRURPS,1,2,1,1,8-22 DAYS,15,0,8,22,DAYS,,Y
BBC,BBC-11-097,097,11,87,ARM A,1,ARM A,1,Y,Y,Y,N,28NOV2006,20FEB2007,4,WEEK 4,2006-12-28,28DEC2006,31,,Week 4,4,Pruritis Assessment,PRURPS,1,2,1,1,23-36 DAYS,29,2,23,36,DAYS,,Y
BBC,BBC-11-097,097,11,88,ARM A,1,ARM A,1,Y,Y,Y,N,28NOV2006,20FEB2007,6,WEEK 6,2007-01-11,11JAN2007,45,,Week 6,6,Pruritis Assessment,PRURPS,1,2,1,1,37-50 DAYS,43,2,37,50,DAYS,,Y
BBC,BBC-11-097,097,11,89,ARM A,1,ARM A,1,Y,Y,Y,N,28NOV2006,20FEB2007,8,WEEK 8,2007-01-24,24JAN2007,58,,Week 8,8,Pruritis Assessment,PRURPS,1,2,1,1,51-71 DAYS,57,1,51,71,DAYS,,Y
BBC,BBC-11-097,097,11,90,ARM A,1,ARM A,1,Y,Y,Y,N,28NOV2006,20FEB2007,12,WEEK 12,2007-02-21,21FEB2007,86,,Week 12,12,Pruritis Assessment,PRURPS,1,1,1,0,72-99 DAYS,85,1,72,99,DAYS,,Y
BBC,BBC-11-097,097,11,91,ARM A,1,ARM A,1,Y,Y,Y,N,28NOV2006,20FEB2007,16,WEEK 16,2007-03-21,21MAR2007,114,,Week 16,16,Pruritis Assessment,PRURPS,1,1,1,0,22-36 DAYS POST-LAST-DOSE,113,1,106,120,DAYS,,
BBC,BBC-11-098,098,11,85,ARM C,3,ARM C,3,Y,Y,Y,Y,04DEC2006,26FEB2007,1,DAY 1,2006-12-04,04DEC2006,1,,Day 1 Baseline,0,Pruritis Assessment,PRURPS,1,2,2,,,,,,,,Y,Y
BBC,BBC-11-098,098,11,86,ARM C,3,ARM C,3,Y,Y,Y,Y,04DEC2006,26FEB2007,2,WEEK 2,2006-12-19,19DEC2006,16,,Week 2,2,Pruritis Assessment,PRURPS,1,2,2,0,8-22 DAYS,15,1,8,22,DAYS,,Y
BBC,BBC-11-098,098,11,87,ARM C,3,ARM C,3,Y,Y,Y,Y,04DEC2006,26FEB2007,4,WEEK 4,2007-01-04,04JAN2007,32,,Week 4,4,Pruritis Assessment,PRURPS,1,3,2,1,23-36 DAYS,29,3,23,36,DAYS,,Y
BBC,BBC-11-098,098,11,88,ARM C,3,ARM C,3,Y,Y,Y,Y,04DEC2006,26FEB2007,6,WEEK 6,2007-01-16,16JAN2007,44,,Week 6,6,Pruritis Assessment,PRURPS,1,2,2,0,37-50 DAYS,43,1,37,50,DAYS,,Y
BBC,BBC-11-098,098,11,89,ARM C,3,ARM C,3,Y,Y,Y,Y,04DEC2006,26FEB2007,8,WEEK 8,2007-01-30,30JAN2007,58,,Week 8,8,Pruritis Assessment,PRURPS,1,2,2,0,51-71 DAYS,57,1,51,71,DAYS,,Y
BBC,BBC-11-098,098,11,90,ARM C,3,ARM C,3,Y,Y,Y,Y,04DEC2006,26FEB2007,12,WEEK 12,2007-02-27,27FEB2007,86,,Week 12,12,Pruritis Assessment,PRURPS,1,1,2,-1,72-99 DAYS,85,1,72,99,DAYS,,Y
BBC,BBC-11-098,098,11,91,ARM C,3,ARM C,3,Y,Y,Y,Y,04DEC2006,26FEB2007,16,WEEK 16,2007-03-27,27MAR2007,114,,Week 16,16,Pruritis Assessment,PRURPS,1,1,2,-1,22-36 DAYS POST-LAST-DOSE,113,1,106,120,DAYS,,
BBC,BBC-11-099,099,11,73,ARM D,4,ARM D,4,Y,Y,Y,Y,08DEC2006,02MAR2007,1,DAY 1,2006-12-08,08DEC2006,1,,Day 1 Baseline,0,Pruritis Assessment,PRURPS,1,1,1,,,,,,,,Y,Y
BBC,BBC-11-099,099,11,74,ARM D,4,ARM D,4,Y,Y,Y,Y,08DEC2006,02MAR2007,4,WEEK 4,2007-01-04,04JAN2007,28,,Week 4,4,Pruritis Assessment,PRURPS,1,0,1,-1,23-36 DAYS,29,1,23,36,DAYS,,Y
BBC,BBC-11-099,099,11,75,ARM D,4,ARM D,4,Y,Y,Y,Y,08DEC2006,02MAR2007,6,WEEK 6,2007-01-19,19JAN2007,43,,Week 6,6,Pruritis Assessment,PRURPS,1,0,1,-1,37-50 DAYS,43,0,37,50,DAYS,,Y
BBC,BBC-11-099,099,11,76,ARM D,4,ARM D,4,Y,Y,Y,Y,08DEC2006,02MAR2007,8,WEEK 8,2007-01-31,31JAN2007,55,,Week 8,8,Pruritis Assessment,PRURPS,1,0,1,-1,51-71 DAYS,57,2,51,71,DAYS,,Y
BBC,BBC-11-099,099,11,77,ARM D,4,ARM D,4,Y,Y,Y,Y,08DEC2006,02MAR2007,12,WEEK 12,2007-03-02,02MAR2007,85,,Week 12,12,Pruritis Assessment,PRURPS,1,0,1,-1,72-99 DAYS,85,0,72,99,DAYS,,Y
BBC,BBC-11-099,099,11,78,ARM D,4,ARM D,4,Y,Y,Y,Y,08DEC2006,02MAR2007,16,WEEK 16,2007-03-30,30MAR2007,113,,Week 16,16,Pruritis Assessment,PRURPS,1,0,1,-1,22-36 DAYS POST-LAST-DOSE,113,0,106,120,DAYS,,
BBC,BBC-11-100,100,11,85,ARM B,2,ARM B,2,Y,Y,Y,N,11JAN2007,03APR2007,1,DAY 1,2007-01-11,11JAN2007,1,,Day 1 Baseline,0,Pruritis Assessment,PRURPS,1,1,1,,,,,,,,Y,Y
BBC,BBC-11-100,100,11,86,ARM B,2,ARM B,2,Y,Y,Y,N,11JAN2007,03APR2007,2,WEEK 2,2007-01-29,29JAN2007,19,,Week 2,2,Pruritis Assessment,PRURPS,1,2,1,1,8-22 DAYS,15,4,8,22,DAYS,,Y
BBC,BBC-11-100,100,11,87,ARM B,2,ARM B,2,Y,Y,Y,N,11JAN2007,03APR2007,4,WEEK 4,2007-02-15,15FEB2007,36,,Week 4,4,Pruritis Assessment,PRURPS,1,1,1,0,23-36 DAYS,29,7,23,36,DAYS,,Y
BBC,BBC-11-100,100,11,88,ARM B,2,ARM B,2,Y,Y,Y,N,11JAN2007,03APR2007,6,WEEK 6,2007-03-01,01MAR2007,50,,Week 6,6,Pruritis Assessment,PRURPS,1,1,1,0,37-50 DAYS,43,7,37,50,DAYS,,Y
BBC,BBC-11-100,100,11,89,ARM B,2,ARM B,2,Y,Y,Y,N,11JAN2007,03APR2007,8,WEEK 8,2007-03-07,07MAR2007,56,,Week 8,8,Pruritis Assessment,PRURPS,1,1,1,0,51-71 DAYS,57,1,51,71,DAYS,,Y
BBC,BBC-11-100,100,11,90,ARM B,2,ARM B,2,Y,Y,Y,N,11JAN2007,03APR2007,12,WEEK 12,2007-04-04,04APR2007,84,,Week 12,12,Pruritis Assessment,PRURPS,1,2,1,1,72-99 DAYS,85,1,72,99,DAYS,,Y
BBC,BBC-11-100,100,11,91,ARM B,2,ARM B,2,Y,Y,Y,N,11JAN2007,03APR2007,16,WEEK 16,2007-05-01,01MAY2007,111,,Week 16,16,Pruritis Assessment,PRURPS,1,2,1,1,22-36 DAYS POST-LAST-DOSE,111,0,104,118,DAYS,,
BBC,BBC-12-057,057,12,37,ARM B,2,ARM B,2,Y,Y,N,N,14NOV2006,,1,DAY 1,2006-11-14,14NOV2006,1,,Day 1 Baseline,0,Pruritis Assessment,PRURPS,1,3,3,,,,,,,,Y,Y
BBC,BBC-12-057,057,12,38,ARM B,2,ARM B,2,Y,Y,N,N,14NOV2006,,2,WEEK 2,2006-11-28,28NOV2006,15,,Week 2,2,Pruritis Assessment,PRURPS,1,0,3,-3,8-22 DAYS,15,0,8,22,DAYS,,
BBC,BBC-12-057,057,12,39,ARM B,2,ARM B,2,Y,Y,N,N,14NOV2006,,4,WEEK 4,2006-12-15,15DEC2006,32,,Week 4,4,Pruritis Assessment,PRURPS,1,2,3,-1,23-36 DAYS,29,3,23,36,DAYS,,
BBC,BBC-12-058,058,12,85,ARM A,1,ARM A,1,Y,Y,Y,Y,15NOV2006,06FEB2007,1,DAY 1,2006-11-15,15NOV2006,1,,Day 1 Baseline,0,Pruritis Assessment,PRURPS,1,2,2,,,,,,,,Y,Y
BBC,BBC-12-058,058,12,86,ARM A,1,ARM A,1,Y,Y,Y,Y,15NOV2006,06FEB2007,2,WEEK 2,2006-11-29,29NOV2006,15,,Week 2,2,Pruritis Assessment,PRURPS,1,2,2,0,8-22 DAYS,15,0,8,22,DAYS,,Y
BBC,BBC-12-058,058,12,87,ARM A,1,ARM A,1,Y,Y,Y,Y,15NOV2006,06FEB2007,4,WEEK 4,2006-12-13,13DEC2006,29,,Week 4,4,Pruritis Assessment,PRURPS,1,2,2,0,23-36 DAYS,29,0,23,36,DAYS,,Y
BBC,BBC-12-058,058,12,88,ARM A,1,ARM A,1,Y,Y,Y,Y,15NOV2006,06FEB2007,6,WEEK 6,2006-12-29,29DEC2006,45,,Week 6,6,Pruritis Assessment,PRURPS,1,2,2,0,37-50 DAYS,43,2,37,50,DAYS,,Y
BBC,BBC-12-058,058,12,89,ARM A,1,ARM A,1,Y,Y,Y,Y,15NOV2006,06FEB2007,8,WEEK 8,2007-01-12,12JAN2007,59,,Week 8,8,Pruritis Assessment,PRURPS,1,2,2,0,51-71 DAYS,57,2,51,71,DAYS,,Y
BBC,BBC-12-058,058,12,90,ARM A,1,ARM A,1,Y,Y,Y,Y,15NOV2006,06FEB2007,12,WEEK 12,2007-02-07,07FEB2007,85,,Week 12,12,Pruritis Assessment,PRURPS,1,2,2,0,72-99 DAYS,85,0,72,99,DAYS,,Y
BBC,BBC-12-058,058,12,91,ARM A,1,ARM A,1,Y,Y,Y,Y,15NOV2006,06FEB2007,16,WEEK 16,2007-03-07,07MAR2007,113,,Week 16,16,Pruritis Assessment,PRURPS,1,2,2,0,22-36 DAYS POST-LAST-DOSE,112,1,105,119,DAYS,,
BBC,BBC-12-059,059,12,73,ARM D,4,ARM D,4,Y,Y,Y,N,17NOV2006,07FEB2007,1,DAY 1,2006-11-17,17NOV2006,1,,Day 1 Baseline,0,Pruritis Assessment,PRURPS,1,2,2,,,,,,,,Y,Y
BBC,BBC-12-059,059,12,74,ARM D,4,ARM D,4,Y,Y,Y,N,17NOV2006,07FEB2007,2,WEEK 2,2006-12-01,01DEC2006,15,,Week 2,2,Pruritis Assessment,PRURPS,1,1,2,-1,8-22 DAYS,15,0,8,22,DAYS,,Y
BBC,BBC-12-059,059,12,75,ARM D,4,ARM D,4,Y,Y,Y,N,17NOV2006,07FEB2007,4,WEEK 4,2006-12-15,15DEC2006,29,,Week 4,4,Pruritis Assessment,PRURPS,1,1,2,-1,23-36 DAYS,29,0,23,36,DAYS,,Y
BBC,BBC-12-059,059,12,76,ARM D,4,ARM D,4,Y,Y,Y,N,17NOV2006,07FEB2007,6,WEEK 6,2006-12-29,29DEC2006,43,,Week 6,6,Pruritis Assessment,PRURPS,1,3,2,1,37-50 DAYS,43,0,37,50,DAYS,,Y
BBC,BBC-12-059,059,12,77,ARM D,4,ARM D,4,Y,Y,Y,N,17NOV2006,07FEB2007,8,WEEK 8,2007-01-12,12JAN2007,57,,Week 8,8,Pruritis Assessment,PRURPS,1,2,2,0,51-71 DAYS,57,0,51,71,DAYS,,Y
BBC,BBC-12-059,059,12,78,ARM D,4,ARM D,4,Y,Y,Y,N,17NOV2006,07FEB2007,20,END OF STUDY EARLY TERMINATION,2007-02-08,08FEB2007,84,,Week 12,12,Pruritis Assessment,PRURPS,1,1,2,-1,72-99 DAYS,85,1,72,99,DAYS,,Y
BBC,BBC-12-060,060,12,85,ARM C,3,ARM C,3,Y,Y,Y,Y,06DEC2006,27FEB2007,1,DAY 1,2006-12-06,06DEC2006,1,,Day 1 Baseline,0,Pruritis Assessment,PRURPS,1,4,4,,,,,,,,Y,Y
BBC,BBC-12-060,060,12,86,ARM C,3,ARM C,3,Y,Y,Y,Y,06DEC2006,27FEB2007,2,WEEK 2,2006-12-20,20DEC2006,15,,Week 2,2,Pruritis Assessment,PRURPS,1,2,4,-2,8-22 DAYS,15,0,8,22,DAYS,,Y
BBC,BBC-12-060,060,12,87,ARM C,3,ARM C,3,Y,Y,Y,Y,06DEC2006,27FEB2007,4,WEEK 4,2007-01-03,03JAN2007,29,,Week 4,4,Pruritis Assessment,PRURPS,1,1,4,-3,23-36 DAYS,29,0,23,36,DAYS,,Y
BBC,BBC-12-060,060,12,88,ARM C,3,ARM C,3,Y,Y,Y,Y,06DEC2006,27FEB2007,6,WEEK 6,2007-01-17,17JAN2007,43,,Week 6,6,Pruritis Assessment,PRURPS,1,0,4,-4,37-50 DAYS,43,0,37,50,DAYS,,Y
BBC,BBC-12-060,060,12,89,ARM C,3,ARM C,3,Y,Y,Y,Y,06DEC2006,27FEB2007,8,WEEK 8,2007-01-31,31JAN2007,57,,Week 8,8,Pruritis Assessment,PRURPS,1,0,4,-4,51-71 DAYS,57,0,51,71,DAYS,,Y
BBC,BBC-12-060,060,12,90,ARM C,3,ARM C,3,Y,Y,Y,Y,06DEC2006,27FEB2007,12,WEEK 12,2007-02-28,28FEB2007,85,,Week 12,12,Pruritis Assessment,PRURPS,1,0,4,-4,72-99 DAYS,85,0,72,99,DAYS,,Y
BBC,BBC-12-060,060,12,91,ARM C,3,ARM C,3,Y,Y,Y,Y,06DEC2006,27FEB2007,16,WEEK 16,2007-03-28,28MAR2007,113,,Week 16,16,Pruritis Assessment,PRURPS,1,1,4,-3,22-36 DAYS POST-LAST-DOSE,112,1,105,119,DAYS,,
BBC,BBC-12-061,061,12,85,ARM B,2,ARM B,2,Y,Y,Y,N,04JAN2007,27MAR2007,1,DAY 1,2007-01-04,04JAN2007,1,,Day 1 Baseline,0,Pruritis Assessment,PRURPS,1,2,2,,,,,,,,Y,Y
BBC,BBC-12-061,061,12,86,ARM B,2,ARM B,2,Y,Y,Y,N,04JAN2007,27MAR2007,2,WEEK 2,2007-01-18,18JAN2007,15,,Week 2,2,Pruritis Assessment,PRURPS,1,2,2,0,8-22 DAYS,15,0,8,22,DAYS,,Y
BBC,BBC-12-061,061,12,87,ARM B,2,ARM B,2,Y,Y,Y,N,04JAN2007,27MAR2007,4,WEEK 4,2007-01-30,30JAN2007,27,,Week 4,4,Pruritis Assessment,PRURPS,1,2,2,0,23-36 DAYS,29,2,23,36,DAYS,,Y
BBC,BBC-12-061,061,12,88,ARM B,2,ARM B,2,Y,Y,Y,N,04JAN2007,27MAR2007,6,WEEK 6,2007-02-16,16FEB2007,44,,Week 6,6,Pruritis Assessment,PRURPS,1,2,2,0,37-50 DAYS,43,1,37,50,DAYS,,Y
BBC,BBC-12-061,061,12,89,ARM B,2,ARM B,2,Y,Y,Y,N,04JAN2007,27MAR2007,8,WEEK 8,2007-03-01,01MAR2007,57,,Week 8,8,Pruritis Assessment,PRURPS,1,2,2,0,51-71 DAYS,57,0,51,71,DAYS,,Y
BBC,BBC-12-061,061,12,90,ARM B,2,ARM B,2,Y,Y,Y,N,04JAN2007,27MAR2007,12,WEEK 12,2007-03-29,29MAR2007,85,,Week 12,12,Pruritis Assessment,PRURPS,1,2,2,0,72-99 DAYS,85,0,72,99,DAYS,,Y
BBC,BBC-12-061,061,12,91,ARM B,2,ARM B,2,Y,Y,Y,N,04JAN2007,27MAR2007,16,WEEK 16,2007-05-01,01MAY2007,118,,Week 16,16,Pruritis Assessment,PRURPS,1,2,2,0,22-36 DAYS POST-LAST-DOSE,111,7,104,118,DAYS,,
BBC,BBC-12-062,062,12,91,ARM A,1,ARM A,1,Y,Y,Y,Y,15JAN2007,08APR2007,16,WEEK 16,2007-03-07,07MAR2007,52,,,,Pruritis Assessment,PRURPS,1,1,3,-2,,,,,,,,
BBC,BBC-12-062,062,12,85,ARM A,1,ARM A,1,Y,Y,Y,Y,15JAN2007,08APR2007,1,DAY 1,2007-01-15,15JAN2007,1,,Day 1 Baseline,0,Pruritis Assessment,PRURPS,1,3,3,,,,,,,,Y,Y
BBC,BBC-12-062,062,12,86,ARM A,1,ARM A,1,Y,Y,Y,Y,15JAN2007,08APR2007,2,WEEK 2,2007-01-29,29JAN2007,15,,Week 2,2,Pruritis Assessment,PRURPS,1,3,3,0,8-22 DAYS,15,0,8,22,DAYS,,Y
BBC,BBC-12-062,062,12,87,ARM A,1,ARM A,1,Y,Y,Y,Y,15JAN2007,08APR2007,4,WEEK 4,2007-02-14,14FEB2007,31,,Week 4,4,Pruritis Assessment,PRURPS,1,1,3,-2,23-36 DAYS,29,2,23,36,DAYS,,Y
BBC,BBC-12-062,062,12,88,ARM A,1,ARM A,1,Y,Y,Y,Y,15JAN2007,08APR2007,6,WEEK 6,2007-02-26,26FEB2007,43,,Week 6,6,Pruritis Assessment,PRURPS,1,1,3,-2,37-50 DAYS,43,0,37,50,DAYS,,Y
BBC,BBC-12-062,062,12,89,ARM A,1,ARM A,1,Y,Y,Y,Y,15JAN2007,08APR2007,8,WEEK 8,2007-03-14,14MAR2007,59,,Week 8,8,Pruritis Assessment,PRURPS,1,1,3,-2,51-71 DAYS,57,2,51,71,DAYS,,Y
BBC,BBC-12-062,062,12,90,ARM A,1,ARM A,1,Y,Y,Y,Y,15JAN2007,08APR2007,12,WEEK 12,2007-04-09,09APR2007,85,,Week 12,12,Pruritis Assessment,PRURPS,1,1,3,-2,72-99 DAYS,85,0,72,99,DAYS,,Y
BBC,BBC-12-063,063,12,85,ARM C,3,ARM C,3,Y,Y,Y,Y,23JAN2007,16APR2007,1,DAY 1,2007-01-23,23JAN2007,1,,Day 1 Baseline,0,Pruritis Assessment,PRURPS,1,2,2,,,,,,,,Y,Y
BBC,BBC-12-063,063,12,86,ARM C,3,ARM C,3,Y,Y,Y,Y,23JAN2007,16APR2007,2,WEEK 2,2007-02-06,06FEB2007,15,,Week 2,2,Pruritis Assessment,PRURPS,1,1,2,-1,8-22 DAYS,15,0,8,22,DAYS,,Y
BBC,BBC-12-063,063,12,87,ARM C,3,ARM C,3,Y,Y,Y,Y,23JAN2007,16APR2007,4,WEEK 4,2007-02-20,20FEB2007,29,,Week 4,4,Pruritis Assessment,PRURPS,1,0,2,-2,23-36 DAYS,29,0,23,36,DAYS,,Y
BBC,BBC-12-063,063,12,88,ARM C,3,ARM C,3,Y,Y,Y,Y,23JAN2007,16APR2007,6,WEEK 6,2007-03-06,06MAR2007,43,,Week 6,6,Pruritis Assessment,PRURPS,1,0,2,-2,37-50 DAYS,43,0,37,50,DAYS,,Y
BBC,BBC-12-063,063,12,89,ARM C,3,ARM C,3,Y,Y,Y,Y,23JAN2007,16APR2007,8,WEEK 8,2007-03-20,20MAR2007,57,,Week 8,8,Pruritis Assessment,PRURPS,1,0,2,-2,51-71 DAYS,57,0,51,71,DAYS,,Y
BBC,BBC-12-063,063,12,90,ARM C,3,ARM C,3,Y,Y,Y,Y,23JAN2007,16APR2007,12,WEEK 12,2007-04-17,17APR2007,85,,Week 12,12,Pruritis Assessment,PRURPS,1,0,2,-2,72-99 DAYS,85,0,72,99,DAYS,,Y
BBC,BBC-12-063,063,12,91,ARM C,3,ARM C,3,Y,Y,Y,Y,23JAN2007,16APR2007,16,WEEK 16,2007-05-08,08MAY2007,106,,Week 16,16,Pruritis Assessment,PRURPS,1,0,2,-2,22-36 DAYS POST-LAST-DOSE,112,6,105,119,DAYS,,
BBC,BBC-13-025,025,13,91,ARM A,1,ARM A,1,Y,Y,Y,N,24OCT2006,03JAN2007,16,WEEK 16,2007-02-13,13FEB2007,113,,,,Pruritis Assessment,PRURPS,1,1,3,-2,,,,,,,,
BBC,BBC-13-025,025,13,85,ARM A,1,ARM A,1,Y,Y,Y,N,24OCT2006,03JAN2007,1,DAY 1,2006-10-24,24OCT2006,1,,Day 1 Baseline,0,Pruritis Assessment,PRURPS,1,3,3,,,,,,,,Y,Y
BBC,BBC-13-025,025,13,86,ARM A,1,ARM A,1,Y,Y,Y,N,24OCT2006,03JAN2007,2,WEEK 2,2006-11-07,07NOV2006,15,,Week 2,2,Pruritis Assessment,PRURPS,1,1,3,-2,8-22 DAYS,15,0,8,22,DAYS,,Y
BBC,BBC-13-025,025,13,87,ARM A,1,ARM A,1,Y,Y,Y,N,24OCT2006,03JAN2007,4,WEEK 4,2006-11-21,21NOV2006,29,,Week 4,4,Pruritis Assessment,PRURPS,1,1,3,-2,23-36 DAYS,29,0,23,36,DAYS,,Y
BBC,BBC-13-025,025,13,88,ARM A,1,ARM A,1,Y,Y,Y,N,24OCT2006,03JAN2007,6,WEEK 6,2006-12-06,06DEC2006,44,,Week 6,6,Pruritis Assessment,PRURPS,1,1,3,-2,37-50 DAYS,43,1,37,50,DAYS,,Y
BBC,BBC-13-025,025,13,89,ARM A,1,ARM A,1,Y,Y,Y,N,24OCT2006,03JAN2007,8,WEEK 8,2006-12-21,21DEC2006,59,,Week 8,8,Pruritis Assessment,PRURPS,1,1,3,-2,51-71 DAYS,57,2,51,71,DAYS,,Y
BBC,BBC-13-025,025,13,90,ARM A,1,ARM A,1,Y,Y,Y,N,24OCT2006,03JAN2007,12,WEEK 12,2007-01-17,17JAN2007,86,,Week 12,12,Pruritis Assessment,PRURPS,1,1,3,-2,72-99 DAYS,85,1,72,99,DAYS,,
BBC,BBC-13-026,026,13,85,ARM B,2,ARM B,2,Y,Y,Y,Y,02NOV2006,24JAN2007,1,DAY 1,2006-11-02,02NOV2006,1,,Day 1 Baseline,0,Pruritis Assessment,PRURPS,1,3,3,,,,,,,,Y,Y
BBC,BBC-13-026,026,13,86,ARM B,2,ARM B,2,Y,Y,Y,Y,02NOV2006,24JAN2007,2,WEEK 2,2006-11-16,16NOV2006,15,,Week 2,2,Pruritis Assessment,PRURPS,1,2,3,-1,8-22 DAYS,15,0,8,22,DAYS,,Y
BBC,BBC-13-026,026,13,87,ARM B,2,ARM B,2,Y,Y,Y,Y,02NOV2006,24JAN2007,4,WEEK 4,2006-11-29,29NOV2006,28,,Week 4,4,Pruritis Assessment,PRURPS,1,2,3,-1,23-36 DAYS,29,1,23,36,DAYS,,Y
BBC,BBC-13-026,026,13,88,ARM B,2,ARM B,2,Y,Y,Y,Y,02NOV2006,24JAN2007,6,WEEK 6,2006-12-14,14DEC2006,43,,Week 6,6,Pruritis Assessment,PRURPS,1,2,3,-1,37-50 DAYS,43,0,37,50,DAYS,,Y
BBC,BBC-13-026,026,13,89,ARM B,2,ARM B,2,Y,Y,Y,Y,02NOV2006,24JAN2007,8,WEEK 8,2006-12-28,28DEC2006,57,,Week 8,8,Pruritis Assessment,PRURPS,1,1,3,-2,51-71 DAYS,57,0,51,71,DAYS,,Y
BBC,BBC-13-026,026,13,90,ARM B,2,ARM B,2,Y,Y,Y,Y,02NOV2006,24JAN2007,12,WEEK 12,2007-01-25,25JAN2007,85,,Week 12,12,Pruritis Assessment,PRURPS,1,2,3,-1,72-99 DAYS,85,0,72,99,DAYS,,Y
BBC,BBC-13-026,026,13,91,ARM B,2,ARM B,2,Y,Y,Y,Y,02NOV2006,24JAN2007,16,WEEK 16,2007-02-22,22FEB2007,113,,Week 16,16,Pruritis Assessment,PRURPS,1,2,3,-1,22-36 DAYS POST-LAST-DOSE,112,1,105,119,DAYS,,
BBC,BBC-13-027,027,13,85,ARM C,3,ARM C,3,Y,Y,Y,N,02NOV2006,24JAN2007,1,DAY 1,2006-11-02,02NOV2006,1,,Day 1 Baseline,0,Pruritis Assessment,PRURPS,1,2,2,,,,,,,,Y,Y
BBC,BBC-13-027,027,13,86,ARM C,3,ARM C,3,Y,Y,Y,N,02NOV2006,24JAN2007,2,WEEK 2,2006-11-16,16NOV2006,15,,Week 2,2,Pruritis Assessment,PRURPS,1,4,2,2,8-22 DAYS,15,0,8,22,DAYS,,Y
BBC,BBC-13-027,027,13,87,ARM C,3,ARM C,3,Y,Y,Y,N,02NOV2006,24JAN2007,4,WEEK 4,2006-11-30,30NOV2006,29,,Week 4,4,Pruritis Assessment,PRURPS,1,2,2,0,23-36 DAYS,29,0,23,36,DAYS,,Y
BBC,BBC-13-027,027,13,88,ARM C,3,ARM C,3,Y,Y,Y,N,02NOV2006,24JAN2007,6,WEEK 6,2006-12-19,19DEC2006,48,,Week 6,6,Pruritis Assessment,PRURPS,1,2,2,0,37-50 DAYS,43,5,37,50,DAYS,,Y
BBC,BBC-13-027,027,13,89,ARM C,3,ARM C,3,Y,Y,Y,N,02NOV2006,24JAN2007,8,WEEK 8,2006-12-28,28DEC2006,57,,Week 8,8,Pruritis Assessment,PRURPS,1,2,2,0,51-71 DAYS,57,0,51,71,DAYS,,Y
BBC,BBC-13-027,027,13,90,ARM C,3,ARM C,3,Y,Y,Y,N,02NOV2006,24JAN2007,12,WEEK 12,2007-01-25,25JAN2007,85,,Week 12,12,Pruritis Assessment,PRURPS,1,2,2,0,72-99 DAYS,85,0,72,99,DAYS,,Y
BBC,BBC-13-027,027,13,91,ARM C,3,ARM C,3,Y,Y,Y,N,02NOV2006,24JAN2007,16,WEEK 16,2007-02-22,22FEB2007,113,,Week 16,16,Pruritis Assessment,PRURPS,1,2,2,0,22-36 DAYS POST-LAST-DOSE,112,1,105,119,DAYS,,
BBC,BBC-13-028,028,13,85,ARM D,4,ARM D,4,Y,Y,Y,Y,07NOV2006,29JAN2007,1,DAY 1,2006-11-07,07NOV2006,1,,Day 1 Baseline,0,Pruritis Assessment,PRURPS,1,1,1,,,,,,,,Y,Y
BBC,BBC-13-028,028,13,86,ARM D,4,ARM D,4,Y,Y,Y,Y,07NOV2006,29JAN2007,2,WEEK 2,2006-11-21,21NOV2006,15,,Week 2,2,Pruritis Assessment,PRURPS,1,0,1,-1,8-22 DAYS,15,0,8,22,DAYS,,Y
BBC,BBC-13-028,028,13,87,ARM D,4,ARM D,4,Y,Y,Y,Y,07NOV2006,29JAN2007,4,WEEK 4,2006-12-07,07DEC2006,31,,Week 4,4,Pruritis Assessment,PRURPS,1,0,1,-1,23-36 DAYS,29,2,23,36,DAYS,,Y
BBC,BBC-13-028,028,13,88,ARM D,4,ARM D,4,Y,Y,Y,Y,07NOV2006,29JAN2007,6,WEEK 6,2006-12-21,21DEC2006,45,,Week 6,6,Pruritis Assessment,PRURPS,1,0,1,-1,37-50 DAYS,43,2,37,50,DAYS,,Y
BBC,BBC-13-028,028,13,89,ARM D,4,ARM D,4,Y,Y,Y,Y,07NOV2006,29JAN2007,8,WEEK 8,2007-01-02,02JAN2007,57,,Week 8,8,Pruritis Assessment,PRURPS,1,0,1,-1,51-71 DAYS,57,0,51,71,DAYS,,Y
BBC,BBC-13-028,028,13,90,ARM D,4,ARM D,4,Y,Y,Y,Y,07NOV2006,29JAN2007,12,WEEK 12,2007-01-30,30JAN2007,85,,Week 12,12,Pruritis Assessment,PRURPS,1,1,1,0,72-99 DAYS,85,0,72,99,DAYS,,Y
BBC,BBC-13-028,028,13,91,ARM D,4,ARM D,4,Y,Y,Y,Y,07NOV2006,29JAN2007,16,WEEK 16,2007-03-01,01MAR2007,115,,Week 16,16,Pruritis Assessment,PRURPS,1,1,1,0,22-36 DAYS POST-LAST-DOSE,112,3,105,119,DAYS,,
BBC,BBC-13-029,029,13,85,ARM C,3,ARM C,3,Y,Y,Y,Y,15NOV2006,13FEB2007,1,DAY 1,2006-11-15,15NOV2006,1,,Day 1 Baseline,0,Pruritis Assessment,PRURPS,1,3,3,,,,,,,,Y,Y
BBC,BBC-13-029,029,13,86,ARM C,3,ARM C,3,Y,Y,Y,Y,15NOV2006,13FEB2007,2,WEEK 2,2006-11-29,29NOV2006,15,,Week 2,2,Pruritis Assessment,PRURPS,1,2,3,-1,8-22 DAYS,15,0,8,22,DAYS,,Y
BBC,BBC-13-029,029,13,87,ARM C,3,ARM C,3,Y,Y,Y,Y,15NOV2006,13FEB2007,4,WEEK 4,2006-12-13,13DEC2006,29,,Week 4,4,Pruritis Assessment,PRURPS,1,3,3,0,23-36 DAYS,29,0,23,36,DAYS,,Y
BBC,BBC-13-029,029,13,88,ARM C,3,ARM C,3,Y,Y,Y,Y,15NOV2006,13FEB2007,6,WEEK 6,2006-12-28,28DEC2006,44,,Week 6,6,Pruritis Assessment,PRURPS,1,3,3,0,37-50 DAYS,43,1,37,50,DAYS,,Y
BBC,BBC-13-029,029,13,89,ARM C,3,ARM C,3,Y,Y,Y,Y,15NOV2006,13FEB2007,8,WEEK 8,2007-01-10,10JAN2007,57,,Week 8,8,Pruritis Assessment,PRURPS,1,3,3,0,51-71 DAYS,57,0,51,71,DAYS,,Y
BBC,BBC-13-029,029,13,90,ARM C,3,ARM C,3,Y,Y,Y,Y,15NOV2006,13FEB2007,12,WEEK 12,2007-02-14,14FEB2007,92,,Week 12,12,Pruritis Assessment,PRURPS,1,1,3,-2,72-99 DAYS,85,7,72,99,DAYS,,Y
BBC,BBC-13-029,029,13,91,ARM C,3,ARM C,3,Y,Y,Y,Y,15NOV2006,13FEB2007,16,WEEK 16,2007-03-08,08MAR2007,114,,Week 16,16,Pruritis Assessment,PRURPS,1,1,3,-2,22-36 DAYS POST-LAST-DOSE,119,5,112,126,DAYS,,
BBC,BBC-13-030,030,13,85,ARM D,4,ARM D,4,Y,Y,Y,Y,16NOV2006,07FEB2007,1,DAY 1,2006-11-16,16NOV2006,1,,Day 1 Baseline,0,Pruritis Assessment,PRURPS,1,1,1,,,,,,,,Y,Y
BBC,BBC-13-030,030,13,86,ARM D,4,ARM D,4,Y,Y,Y,Y,16NOV2006,07FEB2007,2,WEEK 2,2006-11-30,30NOV2006,15,,Week 2,2,Pruritis Assessment,PRURPS,1,1,1,0,8-22 DAYS,15,0,8,22,DAYS,,Y
BBC,BBC-13-030,030,13,87,ARM D,4,ARM D,4,Y,Y,Y,Y,16NOV2006,07FEB2007,4,WEEK 4,2006-12-14,14DEC2006,29,,Week 4,4,Pruritis Assessment,PRURPS,1,1,1,0,23-36 DAYS,29,0,23,36,DAYS,,Y
BBC,BBC-13-030,030,13,88,ARM D,4,ARM D,4,Y,Y,Y,Y,16NOV2006,07FEB2007,6,WEEK 6,2006-12-28,28DEC2006,43,,Week 6,6,Pruritis Assessment,PRURPS,1,1,1,0,37-50 DAYS,43,0,37,50,DAYS,,Y
BBC,BBC-13-030,030,13,89,ARM D,4,ARM D,4,Y,Y,Y,Y,16NOV2006,07FEB2007,8,WEEK 8,2007-01-11,11JAN2007,57,,Week 8,8,Pruritis Assessment,PRURPS,1,1,1,0,51-71 DAYS,57,0,51,71,DAYS,,Y
BBC,BBC-13-030,030,13,90,ARM D,4,ARM D,4,Y,Y,Y,Y,16NOV2006,07FEB2007,12,WEEK 12,2007-02-08,08FEB2007,85,,Week 12,12,Pruritis Assessment,PRURPS,1,1,1,0,72-99 DAYS,85,0,72,99,DAYS,,Y
BBC,BBC-13-030,030,13,91,ARM D,4,ARM D,4,Y,Y,Y,Y,16NOV2006,07FEB2007,16,WEEK 16,2007-03-08,08MAR2007,113,,Week 16,16,Pruritis Assessment,PRURPS,1,1,1,0,22-36 DAYS POST-LAST-DOSE,112,1,105,119,DAYS,,
BBC,BBC-13-031,031,13,85,ARM A,1,ARM A,1,Y,Y,Y,Y,21NOV2006,12FEB2007,1,DAY 1,2006-11-21,21NOV2006,1,,Day 1 Baseline,0,Pruritis Assessment,PRURPS,1,3,3,,,,,,,,Y,Y
BBC,BBC-13-031,031,13,86,ARM A,1,ARM A,1,Y,Y,Y,Y,21NOV2006,12FEB2007,2,WEEK 2,2006-12-06,06DEC2006,16,,Week 2,2,Pruritis Assessment,PRURPS,1,1,3,-2,8-22 DAYS,15,1,8,22,DAYS,,Y
BBC,BBC-13-031,031,13,87,ARM A,1,ARM A,1,Y,Y,Y,Y,21NOV2006,12FEB2007,4,WEEK 4,2006-12-19,19DEC2006,29,,Week 4,4,Pruritis Assessment,PRURPS,1,1,3,-2,23-36 DAYS,29,0,23,36,DAYS,,Y
BBC,BBC-13-031,031,13,88,ARM A,1,ARM A,1,Y,Y,Y,Y,21NOV2006,12FEB2007,6,WEEK 6,2007-01-02,02JAN2007,43,,Week 6,6,Pruritis Assessment,PRURPS,1,1,3,-2,37-50 DAYS,43,0,37,50,DAYS,,Y
BBC,BBC-13-031,031,13,89,ARM A,1,ARM A,1,Y,Y,Y,Y,21NOV2006,12FEB2007,8,WEEK 8,2007-01-16,16JAN2007,57,,Week 8,8,Pruritis Assessment,PRURPS,1,1,3,-2,51-71 DAYS,57,0,51,71,DAYS,,Y
BBC,BBC-13-031,031,13,90,ARM A,1,ARM A,1,Y,Y,Y,Y,21NOV2006,12FEB2007,12,WEEK 12,2007-02-13,13FEB2007,85,,Week 12,12,Pruritis Assessment,PRURPS,1,3,3,0,72-99 DAYS,85,0,72,99,DAYS,,Y
BBC,BBC-13-031,031,13,91,ARM A,1,ARM A,1,Y,Y,Y,Y,21NOV2006,12FEB2007,16,WEEK 16,2007-03-15,15MAR2007,115,,Week 16,16,Pruritis Assessment,PRURPS,1,1,3,-2,22-36 DAYS POST-LAST-DOSE,112,3,105,119,DAYS,,
BBC,BBC-13-032,032,13,37,ARM B,2,ARM B,2,Y,Y,Y,N,21NOV2006,18DEC2006,1,DAY 1,2006-11-21,21NOV2006,1,,Day 1 Baseline,0,Pruritis Assessment,PRURPS,1,1,1,,,,,,,,Y,Y
BBC,BBC-13-032,032,13,38,ARM B,2,ARM B,2,Y,Y,Y,N,21NOV2006,18DEC2006,2,WEEK 2,2006-12-06,06DEC2006,16,,Week 2,2,Pruritis Assessment,PRURPS,1,1,1,0,8-22 DAYS,15,1,8,22,DAYS,,Y
BBC,BBC-13-032,032,13,39,ARM B,2,ARM B,2,Y,Y,Y,N,21NOV2006,18DEC2006,4,WEEK 4,2006-12-19,19DEC2006,29,,Week 4,4,Pruritis Assessment,PRURPS,1,1,1,0,23-36 DAYS,29,0,23,36,DAYS,,Y
BBC,BBC-13-141,141,13,25,ARM D,4,ARM D,4,Y,Y,N,N,21NOV2006,24NOV2006,1,DAY 1,2006-11-21,21NOV2006,1,,Day 1 Baseline,0,Pruritis Assessment,PRURPS,1,4,4,,,,,,,,Y,Y
BBC,BBC-13-141,141,13,26,ARM D,4,ARM D,4,Y,Y,N,N,21NOV2006,24NOV2006,20,END OF STUDY EARLY TERMINATION,2006-12-06,06DEC2006,16,,Week 2,2,Pruritis Assessment,PRURPS,1,3,4,-1,8-22 DAYS,15,1,8,22,DAYS,,
BBC,BBC-13-142,142,13,85,ARM C,3,ARM C,3,Y,Y,Y,Y,14DEC2006,07MAR2007,1,DAY 1,2006-12-14,14DEC2006,1,,Day 1 Baseline,0,Pruritis Assessment,PRURPS,1,3,3,,,,,,,,Y,Y
BBC,BBC-13-142,142,13,86,ARM C,3,ARM C,3,Y,Y,Y,Y,14DEC2006,07MAR2007,2,WEEK 2,2006-12-28,28DEC2006,15,,Week 2,2,Pruritis Assessment,PRURPS,1,1,3,-2,8-22 DAYS,15,0,8,22,DAYS,,Y
BBC,BBC-13-142,142,13,87,ARM C,3,ARM C,3,Y,Y,Y,Y,14DEC2006,07MAR2007,4,WEEK 4,2007-01-10,10JAN2007,28,,Week 4,4,Pruritis Assessment,PRURPS,1,1,3,-2,23-36 DAYS,29,1,23,36,DAYS,,Y
BBC,BBC-13-142,142,13,88,ARM C,3,ARM C,3,Y,Y,Y,Y,14DEC2006,07MAR2007,6,WEEK 6,2007-01-25,25JAN2007,43,,Week 6,6,Pruritis Assessment,PRURPS,1,1,3,-2,37-50 DAYS,43,0,37,50,DAYS,,Y
BBC,BBC-13-142,142,13,89,ARM C,3,ARM C,3,Y,Y,Y,Y,14DEC2006,07MAR2007,8,WEEK 8,2007-02-08,08FEB2007,57,,Week 8,8,Pruritis Assessment,PRURPS,1,1,3,-2,51-71 DAYS,57,0,51,71,DAYS,,Y
BBC,BBC-13-142,142,13,90,ARM C,3,ARM C,3,Y,Y,Y,Y,14DEC2006,07MAR2007,12,WEEK 12,2007-03-08,08MAR2007,85,,Week 12,12,Pruritis Assessment,PRURPS,1,3,3,0,72-99 DAYS,85,0,72,99,DAYS,,Y
BBC,BBC-13-142,142,13,91,ARM C,3,ARM C,3,Y,Y,Y,Y,14DEC2006,07MAR2007,16,WEEK 16,2007-04-05,05APR2007,113,,Week 16,16,Pruritis Assessment,PRURPS,1,3,3,0,22-36 DAYS POST-LAST-DOSE,112,1,105,119,DAYS,,
BBC,BBC-13-143,143,13,85,ARM B,2,ARM B,2,Y,Y,Y,Y,19DEC2006,13MAR2007,1,DAY 1,2006-12-19,19DEC2006,1,,Day 1 Baseline,0,Pruritis Assessment,PRURPS,1,2,2,,,,,,,,Y,Y
BBC,BBC-13-143,143,13,86,ARM B,2,ARM B,2,Y,Y,Y,Y,19DEC2006,13MAR2007,2,WEEK 2,2007-01-02,02JAN2007,15,,Week 2,2,Pruritis Assessment,PRURPS,1,2,2,0,8-22 DAYS,15,0,8,22,DAYS,,Y
BBC,BBC-13-143,143,13,87,ARM B,2,ARM B,2,Y,Y,Y,Y,19DEC2006,13MAR2007,4,WEEK 4,2007-01-16,16JAN2007,29,,Week 4,4,Pruritis Assessment,PRURPS,1,1,2,-1,23-36 DAYS,29,0,23,36,DAYS,,Y
BBC,BBC-13-143,143,13,88,ARM B,2,ARM B,2,Y,Y,Y,Y,19DEC2006,13MAR2007,6,WEEK 6,2007-01-30,30JAN2007,43,,Week 6,6,Pruritis Assessment,PRURPS,1,1,2,-1,37-50 DAYS,43,0,37,50,DAYS,,Y
BBC,BBC-13-143,143,13,89,ARM B,2,ARM B,2,Y,Y,Y,Y,19DEC2006,13MAR2007,8,WEEK 8,2007-02-13,13FEB2007,57,,Week 8,8,Pruritis Assessment,PRURPS,1,1,2,-1,51-71 DAYS,57,0,51,71,DAYS,,Y
BBC,BBC-13-143,143,13,90,ARM B,2,ARM B,2,Y,Y,Y,Y,19DEC2006,13MAR2007,12,WEEK 12,2007-03-14,14MAR2007,86,,Week 12,12,Pruritis Assessment,PRURPS,1,1,2,-1,72-99 DAYS,85,1,72,99,DAYS,,Y
BBC,BBC-13-143,143,13,91,ARM B,2,ARM B,2,Y,Y,Y,Y,19DEC2006,13MAR2007,16,WEEK 16,2007-04-10,10APR2007,113,,Week 16,16,Pruritis Assessment,PRURPS,1,3,2,1,22-36 DAYS POST-LAST-DOSE,113,0,106,120,DAYS,,
BBC,BBC-14-081,081,14,85,ARM B,2,ARM B,2,Y,Y,Y,Y,07NOV2006,29JAN2007,1,DAY 1,2006-11-07,07NOV2006,1,,Day 1 Baseline,0,Pruritis Assessment,PRURPS,1,0,0,,,,,,,,Y,Y
BBC,BBC-14-081,081,14,86,ARM B,2,ARM B,2,Y,Y,Y,Y,07NOV2006,29JAN2007,2,WEEK 2,2006-11-21,21NOV2006,15,,Week 2,2,Pruritis Assessment,PRURPS,1,0,0,0,8-22 DAYS,15,0,8,22,DAYS,,Y
BBC,BBC-14-081,081,14,87,ARM B,2,ARM B,2,Y,Y,Y,Y,07NOV2006,29JAN2007,4,WEEK 4,2006-12-05,05DEC2006,29,,Week 4,4,Pruritis Assessment,PRURPS,1,0,0,0,23-36 DAYS,29,0,23,36,DAYS,,Y
BBC,BBC-14-081,081,14,88,ARM B,2,ARM B,2,Y,Y,Y,Y,07NOV2006,29JAN2007,6,WEEK 6,2006-12-18,18DEC2006,42,,Week 6,6,Pruritis Assessment,PRURPS,1,0,0,0,37-50 DAYS,43,1,37,50,DAYS,,Y
BBC,BBC-14-081,081,14,89,ARM B,2,ARM B,2,Y,Y,Y,Y,07NOV2006,29JAN2007,8,WEEK 8,2007-01-02,02JAN2007,57,,Week 8,8,Pruritis Assessment,PRURPS,1,0,0,0,51-71 DAYS,57,0,51,71,DAYS,,Y
BBC,BBC-14-081,081,14,90,ARM B,2,ARM B,2,Y,Y,Y,Y,07NOV2006,29JAN2007,12,WEEK 12,2007-01-30,30JAN2007,85,,Week 12,12,Pruritis Assessment,PRURPS,1,0,0,0,72-99 DAYS,85,0,72,99,DAYS,,Y
BBC,BBC-14-081,081,14,91,ARM B,2,ARM B,2,Y,Y,Y,Y,07NOV2006,29JAN2007,16,WEEK 16,2007-02-27,27FEB2007,113,,Week 16,16,Pruritis Assessment,PRURPS,1,0,0,0,22-36 DAYS POST-LAST-DOSE,112,1,105,119,DAYS,,
BBC,BBC-14-082,082,14,85,ARM D,4,ARM D,4,Y,Y,Y,Y,13NOV2006,06FEB2007,1,DAY 1,2006-11-13,13NOV2006,1,,Day 1 Baseline,0,Pruritis Assessment,PRURPS,1,2,2,,,,,,,,Y,Y
BBC,BBC-14-082,082,14,86,ARM D,4,ARM D,4,Y,Y,Y,Y,13NOV2006,06FEB2007,2,WEEK 2,2006-11-28,28NOV2006,16,,Week 2,2,Pruritis Assessment,PRURPS,1,2,2,0,8-22 DAYS,15,1,8,22,DAYS,,Y
BBC,BBC-14-082,082,14,87,ARM D,4,ARM D,4,Y,Y,Y,Y,13NOV2006,06FEB2007,4,WEEK 4,2006-12-12,12DEC2006,30,,Week 4,4,Pruritis Assessment,PRURPS,1,2,2,0,23-36 DAYS,29,1,23,36,DAYS,,Y
BBC,BBC-14-082,082,14,88,ARM D,4,ARM D,4,Y,Y,Y,Y,13NOV2006,06FEB2007,6,WEEK 6,2006-12-27,27DEC2006,45,,Week 6,6,Pruritis Assessment,PRURPS,1,1,2,-1,37-50 DAYS,43,2,37,50,DAYS,,Y
BBC,BBC-14-082,082,14,89,ARM D,4,ARM D,4,Y,Y,Y,Y,13NOV2006,06FEB2007,8,WEEK 8,2007-01-08,08JAN2007,57,,Week 8,8,Pruritis Assessment,PRURPS,1,1,2,-1,51-71 DAYS,57,0,51,71,DAYS,,Y
BBC,BBC-14-082,082,14,90,ARM D,4,ARM D,4,Y,Y,Y,Y,13NOV2006,06FEB2007,12,WEEK 12,2007-02-07,07FEB2007,87,,Week 12,12,Pruritis Assessment,PRURPS,1,1,2,-1,72-99 DAYS,85,2,72,99,DAYS,,Y
BBC,BBC-14-082,082,14,91,ARM D,4,ARM D,4,Y,Y,Y,Y,13NOV2006,06FEB2007,16,WEEK 16,2007-03-08,08MAR2007,116,,Week 16,16,Pruritis Assessment,PRURPS,1,0,2,-2,22-36 DAYS POST-LAST-DOSE,114,2,107,121,DAYS,,
BBC,BBC-14-083,083,14,78,ARM C,3,ARM C,3,Y,Y,Y,N,14NOV2006,14FEB2007,20,END OF STUDY EARLY TERMINATION,2007-03-06,06MAR2007,113,,,,Pruritis Assessment,PRURPS,1,1,1,0,,,,,,,,
BBC,BBC-14-083,083,14,73,ARM C,3,ARM C,3,Y,Y,Y,N,14NOV2006,14FEB2007,1,DAY 1,2006-11-14,14NOV2006,1,,Day 1 Baseline,0,Pruritis Assessment,PRURPS,1,1,1,,,,,,,,Y,Y
BBC,BBC-14-083,083,14,74,ARM C,3,ARM C,3,Y,Y,Y,N,14NOV2006,14FEB2007,2,WEEK 2,2006-11-28,28NOV2006,15,,Week 2,2,Pruritis Assessment,PRURPS,1,0,1,-1,8-22 DAYS,15,0,8,22,DAYS,,Y
BBC,BBC-14-083,083,14,75,ARM C,3,ARM C,3,Y,Y,Y,N,14NOV2006,14FEB2007,4,WEEK 4,2006-12-12,12DEC2006,29,,Week 4,4,Pruritis Assessment,PRURPS,1,2,1,1,23-36 DAYS,29,0,23,36,DAYS,,Y
BBC,BBC-14-083,083,14,76,ARM C,3,ARM C,3,Y,Y,Y,N,14NOV2006,14FEB2007,6,WEEK 6,2006-12-27,27DEC2006,44,,Week 6,6,Pruritis Assessment,PRURPS,1,0,1,-1,37-50 DAYS,43,1,37,50,DAYS,,Y
BBC,BBC-14-083,083,14,77,ARM C,3,ARM C,3,Y,Y,Y,N,14NOV2006,14FEB2007,8,WEEK 8,2007-01-09,09JAN2007,57,,Week 8,8,Pruritis Assessment,PRURPS,1,0,1,-1,51-71 DAYS,57,0,51,71,DAYS,,Y
BBC,BBC-14-084,084,14,85,ARM A,1,ARM A,1,Y,Y,Y,Y,14NOV2006,06FEB2007,1,DAY 1,2006-11-14,14NOV2006,1,,Day 1 Baseline,0,Pruritis Assessment,PRURPS,1,1,1,,,,,,,,Y,Y
BBC,BBC-14-084,084,14,86,ARM A,1,ARM A,1,Y,Y,Y,Y,14NOV2006,06FEB2007,2,WEEK 2,2006-11-28,28NOV2006,15,,Week 2,2,Pruritis Assessment,PRURPS,1,1,1,0,8-22 DAYS,15,0,8,22,DAYS,,Y
BBC,BBC-14-084,084,14,87,ARM A,1,ARM A,1,Y,Y,Y,Y,14NOV2006,06FEB2007,4,WEEK 4,2006-12-12,12DEC2006,29,,Week 4,4,Pruritis Assessment,PRURPS,1,0,1,-1,23-36 DAYS,29,0,23,36,DAYS,,Y
BBC,BBC-14-084,084,14,88,ARM A,1,ARM A,1,Y,Y,Y,Y,14NOV2006,06FEB2007,6,WEEK 6,2006-12-27,27DEC2006,44,,Week 6,6,Pruritis Assessment,PRURPS,1,0,1,-1,37-50 DAYS,43,1,37,50,DAYS,,Y
BBC,BBC-14-084,084,14,89,ARM A,1,ARM A,1,Y,Y,Y,Y,14NOV2006,06FEB2007,8,WEEK 8,2007-01-10,10JAN2007,58,,Week 8,8,Pruritis Assessment,PRURPS,1,1,1,0,51-71 DAYS,57,1,51,71,DAYS,,Y
BBC,BBC-14-084,084,14,90,ARM A,1,ARM A,1,Y,Y,Y,Y,14NOV2006,06FEB2007,12,WEEK 12,2007-02-07,07FEB2007,86,,Week 12,12,Pruritis Assessment,PRURPS,1,1,1,0,72-99 DAYS,85,1,72,99,DAYS,,Y
BBC,BBC-14-084,084,14,91,ARM A,1,ARM A,1,Y,Y,Y,Y,14NOV2006,06FEB2007,16,WEEK 16,2007-03-06,06MAR2007,113,,Week 16,16,Pruritis Assessment,PRURPS,1,1,1,0,22-36 DAYS POST-LAST-DOSE,113,0,106,120,DAYS,,
BBC,BBC-14-085,085,14,85,ARM A,1,ARM A,1,Y,Y,Y,Y,15NOV2006,06FEB2007,1,DAY 1,2006-11-15,15NOV2006,1,,Day 1 Baseline,0,Pruritis Assessment,PRURPS,1,5,5,,,,,,,,Y,Y
BBC,BBC-14-085,085,14,86,ARM A,1,ARM A,1,Y,Y,Y,Y,15NOV2006,06FEB2007,2,WEEK 2,2006-12-06,06DEC2006,22,,Week 2,2,Pruritis Assessment,PRURPS,1,3,5,-2,8-22 DAYS,15,7,8,22,DAYS,,Y
BBC,BBC-14-085,085,14,87,ARM A,1,ARM A,1,Y,Y,Y,Y,15NOV2006,06FEB2007,4,WEEK 4,2006-12-14,14DEC2006,30,,Week 4,4,Pruritis Assessment,PRURPS,1,3,5,-2,23-36 DAYS,29,1,23,36,DAYS,,Y
BBC,BBC-14-085,085,14,88,ARM A,1,ARM A,1,Y,Y,Y,Y,15NOV2006,06FEB2007,6,WEEK 6,2006-12-28,28DEC2006,44,,Week 6,6,Pruritis Assessment,PRURPS,1,3,5,-2,37-50 DAYS,43,1,37,50,DAYS,,Y
BBC,BBC-14-085,085,14,89,ARM A,1,ARM A,1,Y,Y,Y,Y,15NOV2006,06FEB2007,8,WEEK 8,2007-01-10,10JAN2007,57,,Week 8,8,Pruritis Assessment,PRURPS,1,3,5,-2,51-71 DAYS,57,0,51,71,DAYS,,Y
BBC,BBC-14-085,085,14,90,ARM A,1,ARM A,1,Y,Y,Y,Y,15NOV2006,06FEB2007,12,WEEK 12,2007-02-07,07FEB2007,85,,Week 12,12,Pruritis Assessment,PRURPS,1,3,5,-2,72-99 DAYS,85,0,72,99,DAYS,,Y
BBC,BBC-14-085,085,14,91,ARM A,1,ARM A,1,Y,Y,Y,Y,15NOV2006,06FEB2007,16,WEEK 16,2007-03-07,07MAR2007,113,,Week 16,16,Pruritis Assessment,PRURPS,1,2,5,-3,22-36 DAYS POST-LAST-DOSE,112,1,105,119,DAYS,,
BBC,BBC-14-086,086,14,85,ARM C,3,ARM C,3,Y,Y,Y,Y,15NOV2006,06FEB2007,1,DAY 1,2006-11-15,15NOV2006,1,,Day 1 Baseline,0,Pruritis Assessment,PRURPS,1,0,0,,,,,,,,Y,Y
BBC,BBC-14-086,086,14,86,ARM C,3,ARM C,3,Y,Y,Y,Y,15NOV2006,06FEB2007,2,WEEK 2,2006-12-06,06DEC2006,22,,Week 2,2,Pruritis Assessment,PRURPS,1,1,0,1,8-22 DAYS,15,7,8,22,DAYS,,Y
BBC,BBC-14-086,086,14,87,ARM C,3,ARM C,3,Y,Y,Y,Y,15NOV2006,06FEB2007,4,WEEK 4,2006-12-13,13DEC2006,29,,Week 4,4,Pruritis Assessment,PRURPS,1,1,0,1,23-36 DAYS,29,0,23,36,DAYS,,Y
BBC,BBC-14-086,086,14,88,ARM C,3,ARM C,3,Y,Y,Y,Y,15NOV2006,06FEB2007,6,WEEK 6,2006-12-27,27DEC2006,43,,Week 6,6,Pruritis Assessment,PRURPS,1,2,0,2,37-50 DAYS,43,0,37,50,DAYS,,Y
BBC,BBC-14-086,086,14,89,ARM C,3,ARM C,3,Y,Y,Y,Y,15NOV2006,06FEB2007,8,WEEK 8,2007-01-10,10JAN2007,57,,Week 8,8,Pruritis Assessment,PRURPS,1,2,0,2,51-71 DAYS,57,0,51,71,DAYS,,Y
BBC,BBC-14-086,086,14,90,ARM C,3,ARM C,3,Y,Y,Y,Y,15NOV2006,06FEB2007,12,WEEK 12,2007-02-07,07FEB2007,85,,Week 12,12,Pruritis Assessment,PRURPS,1,2,0,2,72-99 DAYS,85,0,72,99,DAYS,,Y
BBC,BBC-14-086,086,14,91,ARM C,3,ARM C,3,Y,Y,Y,Y,15NOV2006,06FEB2007,16,WEEK 16,2007-03-07,07MAR2007,113,,Week 16,16,Pruritis Assessment,PRURPS,1,3,0,3,22-36 DAYS POST-LAST-DOSE,112,1,105,119,DAYS,,
BBC,BBC-14-087,087,14,85,ARM D,4,ARM D,4,Y,Y,Y,Y,16NOV2006,07FEB2007,1,DAY 1,2006-11-16,16NOV2006,1,,Day 1 Baseline,0,Pruritis Assessment,PRURPS,1,4,4,,,,,,,,Y,Y
BBC,BBC-14-087,087,14,86,ARM D,4,ARM D,4,Y,Y,Y,Y,16NOV2006,07FEB2007,2,WEEK 2,2006-11-30,30NOV2006,15,,Week 2,2,Pruritis Assessment,PRURPS,1,2,4,-2,8-22 DAYS,15,0,8,22,DAYS,,Y
BBC,BBC-14-087,087,14,87,ARM D,4,ARM D,4,Y,Y,Y,Y,16NOV2006,07FEB2007,4,WEEK 4,2006-12-13,13DEC2006,28,,Week 4,4,Pruritis Assessment,PRURPS,1,2,4,-2,23-36 DAYS,29,1,23,36,DAYS,,Y
BBC,BBC-14-087,087,14,88,ARM D,4,ARM D,4,Y,Y,Y,Y,16NOV2006,07FEB2007,6,WEEK 6,2006-12-28,28DEC2006,43,,Week 6,6,Pruritis Assessment,PRURPS,1,2,4,-2,37-50 DAYS,43,0,37,50,DAYS,,Y
BBC,BBC-14-087,087,14,89,ARM D,4,ARM D,4,Y,Y,Y,Y,16NOV2006,07FEB2007,8,WEEK 8,2007-01-09,09JAN2007,55,,Week 8,8,Pruritis Assessment,PRURPS,1,2,4,-2,51-71 DAYS,57,2,51,71,DAYS,,Y
BBC,BBC-14-087,087,14,90,ARM D,4,ARM D,4,Y,Y,Y,Y,16NOV2006,07FEB2007,12,WEEK 12,2007-02-08,08FEB2007,85,,Week 12,12,Pruritis Assessment,PRURPS,1,1,4,-3,72-99 DAYS,85,0,72,99,DAYS,,Y
BBC,BBC-14-087,087,14,91,ARM D,4,ARM D,4,Y,Y,Y,Y,16NOV2006,07FEB2007,16,WEEK 16,2007-03-07,07MAR2007,112,,Week 16,16,Pruritis Assessment,PRURPS,1,4,4,0,22-36 DAYS POST-LAST-DOSE,112,0,105,119,DAYS,,
BBC,BBC-14-088,088,14,85,ARM B,2,ARM B,2,Y,Y,Y,Y,20NOV2006,12FEB2007,1,DAY 1,2006-11-20,20NOV2006,1,,Day 1 Baseline,0,Pruritis Assessment,PRURPS,1,4,4,,,,,,,,Y,Y
BBC,BBC-14-088,088,14,86,ARM B,2,ARM B,2,Y,Y,Y,Y,20NOV2006,12FEB2007,2,WEEK 2,2006-12-05,05DEC2006,16,,Week 2,2,Pruritis Assessment,PRURPS,1,3,4,-1,8-22 DAYS,15,1,8,22,DAYS,,Y
BBC,BBC-14-088,088,14,87,ARM B,2,ARM B,2,Y,Y,Y,Y,20NOV2006,12FEB2007,4,WEEK 4,2006-12-19,19DEC2006,30,,Week 4,4,Pruritis Assessment,PRURPS,1,3,4,-1,23-36 DAYS,29,1,23,36,DAYS,,Y
BBC,BBC-14-088,088,14,88,ARM B,2,ARM B,2,Y,Y,Y,Y,20NOV2006,12FEB2007,6,WEEK 6,2007-01-02,02JAN2007,44,,Week 6,6,Pruritis Assessment,PRURPS,1,3,4,-1,37-50 DAYS,43,1,37,50,DAYS,,Y
BBC,BBC-14-088,088,14,89,ARM B,2,ARM B,2,Y,Y,Y,Y,20NOV2006,12FEB2007,8,WEEK 8,2007-01-16,16JAN2007,58,,Week 8,8,Pruritis Assessment,PRURPS,1,3,4,-1,51-71 DAYS,57,1,51,71,DAYS,,Y
BBC,BBC-14-088,088,14,90,ARM B,2,ARM B,2,Y,Y,Y,Y,20NOV2006,12FEB2007,12,WEEK 12,2007-02-13,13FEB2007,86,,Week 12,12,Pruritis Assessment,PRURPS,1,3,4,-1,72-99 DAYS,85,1,72,99,DAYS,,Y
BBC,BBC-14-088,088,14,91,ARM B,2,ARM B,2,Y,Y,Y,Y,20NOV2006,12FEB2007,16,WEEK 16,2007-03-13,13MAR2007,114,,Week 16,16,Pruritis Assessment,PRURPS,1,1,4,-3,22-36 DAYS POST-LAST-DOSE,113,1,106,120,DAYS,,
BBC,BBC-14-117,117,14,85,ARM A,1,ARM A,1,Y,Y,Y,Y,20NOV2006,14FEB2007,1,DAY 1,2006-11-20,20NOV2006,1,,Day 1 Baseline,0,Pruritis Assessment,PRURPS,1,5,5,,,,,,,,Y,Y
BBC,BBC-14-117,117,14,86,ARM A,1,ARM A,1,Y,Y,Y,Y,20NOV2006,14FEB2007,2,WEEK 2,2006-12-05,05DEC2006,16,,Week 2,2,Pruritis Assessment,PRURPS,1,5,5,0,8-22 DAYS,15,1,8,22,DAYS,,Y
BBC,BBC-14-117,117,14,87,ARM A,1,ARM A,1,Y,Y,Y,Y,20NOV2006,14FEB2007,4,WEEK 4,2006-12-19,19DEC2006,30,,Week 4,4,Pruritis Assessment,PRURPS,1,5,5,0,23-36 DAYS,29,1,23,36,DAYS,,Y
BBC,BBC-14-117,117,14,88,ARM A,1,ARM A,1,Y,Y,Y,Y,20NOV2006,14FEB2007,6,WEEK 6,2007-01-10,10JAN2007,52,,Week 8,8,Pruritis Assessment,PRURPS,1,1,5,-4,51-71 DAYS,57,5,51,71,DAYS,,
BBC,BBC-14-117,117,14,89,ARM A,1,ARM A,1,Y,Y,Y,Y,20NOV2006,14FEB2007,8,WEEK 8,2007-01-16,16JAN2007,58,,Week 8,8,Pruritis Assessment,PRURPS,1,1,5,-4,51-71 DAYS,57,1,51,71,DAYS,,Y
BBC,BBC-14-117,117,14,90,ARM A,1,ARM A,1,Y,Y,Y,Y,20NOV2006,14FEB2007,12,WEEK 12,2007-02-15,15FEB2007,88,,Week 12,12,Pruritis Assessment,PRURPS,1,2,5,-3,72-99 DAYS,85,3,72,99,DAYS,,Y
BBC,BBC-14-117,117,14,91,ARM A,1,ARM A,1,Y,Y,Y,Y,20NOV2006,14FEB2007,16,WEEK 16,2007-03-12,12MAR2007,113,,Week 16,16,Pruritis Assessment,PRURPS,1,1,5,-4,22-36 DAYS POST-LAST-DOSE,115,2,108,122,DAYS,,
BBC,BBC-14-118,118,14,85,ARM B,2,ARM B,2,Y,Y,Y,Y,28NOV2006,20FEB2007,1,DAY 1,2006-11-28,28NOV2006,1,,Day 1 Baseline,0,Pruritis Assessment,PRURPS,1,1,1,,,,,,,,Y,Y
BBC,BBC-14-118,118,14,86,ARM B,2,ARM B,2,Y,Y,Y,Y,28NOV2006,20FEB2007,2,WEEK 2,2006-12-12,12DEC2006,15,,Week 2,2,Pruritis Assessment,PRURPS,1,1,1,0,8-22 DAYS,15,0,8,22,DAYS,,Y
BBC,BBC-14-118,118,14,87,ARM B,2,ARM B,2,Y,Y,Y,Y,28NOV2006,20FEB2007,4,WEEK 4,2006-12-27,27DEC2006,30,,Week 4,4,Pruritis Assessment,PRURPS,1,1,1,0,23-36 DAYS,29,1,23,36,DAYS,,Y
BBC,BBC-14-118,118,14,88,ARM B,2,ARM B,2,Y,Y,Y,Y,28NOV2006,20FEB2007,6,WEEK 6,2007-01-05,05JAN2007,39,,Week 6,6,Pruritis Assessment,PRURPS,1,1,1,0,37-50 DAYS,43,4,37,50,DAYS,,Y
BBC,BBC-14-118,118,14,89,ARM B,2,ARM B,2,Y,Y,Y,Y,28NOV2006,20FEB2007,8,WEEK 8,2007-01-23,23JAN2007,57,,Week 8,8,Pruritis Assessment,PRURPS,1,1,1,0,51-71 DAYS,57,0,51,71,DAYS,,Y
BBC,BBC-14-118,118,14,90,ARM B,2,ARM B,2,Y,Y,Y,Y,28NOV2006,20FEB2007,12,WEEK 12,2007-02-21,21FEB2007,86,,Week 12,12,Pruritis Assessment,PRURPS,1,2,1,1,72-99 DAYS,85,1,72,99,DAYS,,Y
BBC,BBC-14-118,118,14,91,ARM B,2,ARM B,2,Y,Y,Y,Y,28NOV2006,20FEB2007,16,WEEK 16,2007-03-21,21MAR2007,114,,Week 16,16,Pruritis Assessment,PRURPS,1,1,1,0,22-36 DAYS POST-LAST-DOSE,113,1,106,120,DAYS,,
BBC,BBC-14-119,119,14,49,ARM C,3,ARM C,3,Y,Y,Y,N,28NOV2006,08JAN2007,1,DAY 1,2006-11-28,28NOV2006,1,,Day 1 Baseline,0,Pruritis Assessment,PRURPS,1,1,1,,,,,,,,Y,Y
BBC,BBC-14-119,119,14,50,ARM C,3,ARM C,3,Y,Y,Y,N,28NOV2006,08JAN2007,2,WEEK 2,2006-12-13,13DEC2006,16,,Week 2,2,Pruritis Assessment,PRURPS,1,2,1,1,8-22 DAYS,15,1,8,22,DAYS,,Y
BBC,BBC-14-119,119,14,51,ARM C,3,ARM C,3,Y,Y,Y,N,28NOV2006,08JAN2007,4,WEEK 4,2006-12-28,28DEC2006,31,,Week 4,4,Pruritis Assessment,PRURPS,1,2,1,1,23-36 DAYS,29,2,23,36,DAYS,,Y
BBC,BBC-14-119,119,14,52,ARM C,3,ARM C,3,Y,Y,Y,N,28NOV2006,08JAN2007,20,END OF STUDY EARLY TERMINATION,2007-01-09,09JAN2007,43,,Week 6,6,Pruritis Assessment,PRURPS,1,5,1,4,37-50 DAYS,43,0,37,50,DAYS,,Y
BBC,BBC-14-120,120,14,85,ARM D,4,ARM D,4,Y,Y,Y,Y,28NOV2006,20FEB2007,1,DAY 1,2006-11-28,28NOV2006,1,,Day 1 Baseline,0,Pruritis Assessment,PRURPS,1,2,2,,,,,,,,Y,Y
BBC,BBC-14-120,120,14,86,ARM D,4,ARM D,4,Y,Y,Y,Y,28NOV2006,20FEB2007,2,WEEK 2,2006-12-12,12DEC2006,15,,Week 2,2,Pruritis Assessment,PRURPS,1,0,2,-2,8-22 DAYS,15,0,8,22,DAYS,,Y
BBC,BBC-14-120,120,14,87,ARM D,4,ARM D,4,Y,Y,Y,Y,28NOV2006,20FEB2007,4,WEEK 4,2006-12-27,27DEC2006,30,,Week 4,4,Pruritis Assessment,PRURPS,1,0,2,-2,23-36 DAYS,29,1,23,36,DAYS,,Y
BBC,BBC-14-120,120,14,88,ARM D,4,ARM D,4,Y,Y,Y,Y,28NOV2006,20FEB2007,6,WEEK 6,2007-01-10,10JAN2007,44,,Week 6,6,Pruritis Assessment,PRURPS,1,0,2,-2,37-50 DAYS,43,1,37,50,DAYS,,Y
BBC,BBC-14-120,120,14,89,ARM D,4,ARM D,4,Y,Y,Y,Y,28NOV2006,20FEB2007,8,WEEK 8,2007-01-25,25JAN2007,59,,Week 8,8,Pruritis Assessment,PRURPS,1,0,2,-2,51-71 DAYS,57,2,51,71,DAYS,,Y
BBC,BBC-14-120,120,14,90,ARM D,4,ARM D,4,Y,Y,Y,Y,28NOV2006,20FEB2007,12,WEEK 12,2007-02-21,21FEB2007,86,,Week 12,12,Pruritis Assessment,PRURPS,1,0,2,-2,72-99 DAYS,85,1,72,99,DAYS,,Y
BBC,BBC-14-120,120,14,91,ARM D,4,ARM D,4,Y,Y,Y,Y,28NOV2006,20FEB2007,16,WEEK 16,2007-03-21,21MAR2007,114,,Week 16,16,Pruritis Assessment,PRURPS,1,0,2,-2,22-36 DAYS POST-LAST-DOSE,113,1,106,120,DAYS,,
BBC,BBC-14-121,121,14,85,ARM C,3,ARM C,3,Y,Y,Y,Y,29NOV2006,22FEB2007,1,DAY 1,2006-11-29,29NOV2006,1,,Day 1 Baseline,0,Pruritis Assessment,PRURPS,1,2,2,,,,,,,,Y,Y
BBC,BBC-14-121,121,14,86,ARM C,3,ARM C,3,Y,Y,Y,Y,29NOV2006,22FEB2007,2,WEEK 2,2006-12-12,12DEC2006,14,,Week 2,2,Pruritis Assessment,PRURPS,1,2,2,0,8-22 DAYS,15,1,8,22,DAYS,,Y
BBC,BBC-14-121,121,14,87,ARM C,3,ARM C,3,Y,Y,Y,Y,29NOV2006,22FEB2007,4,WEEK 4,2006-12-28,28DEC2006,30,,Week 4,4,Pruritis Assessment,PRURPS,1,2,2,0,23-36 DAYS,29,1,23,36,DAYS,,Y
BBC,BBC-14-121,121,14,88,ARM C,3,ARM C,3,Y,Y,Y,Y,29NOV2006,22FEB2007,6,WEEK 6,2007-01-09,09JAN2007,42,,Week 6,6,Pruritis Assessment,PRURPS,1,2,2,0,37-50 DAYS,43,1,37,50,DAYS,,Y
BBC,BBC-14-121,121,14,89,ARM C,3,ARM C,3,Y,Y,Y,Y,29NOV2006,22FEB2007,8,WEEK 8,2007-01-23,23JAN2007,56,,Week 8,8,Pruritis Assessment,PRURPS,1,2,2,0,51-71 DAYS,57,1,51,71,DAYS,,Y
BBC,BBC-14-121,121,14,90,ARM C,3,ARM C,3,Y,Y,Y,Y,29NOV2006,22FEB2007,12,WEEK 12,2007-02-23,23FEB2007,87,,Week 12,12,Pruritis Assessment,PRURPS,1,2,2,0,72-99 DAYS,85,2,72,99,DAYS,,Y
BBC,BBC-14-121,121,14,91,ARM C,3,ARM C,3,Y,Y,Y,Y,29NOV2006,22FEB2007,16,WEEK 16,2007-03-20,20MAR2007,112,,Week 16,16,Pruritis Assessment,PRURPS,1,2,2,0,22-36 DAYS POST-LAST-DOSE,114,2,107,121,DAYS,,
BBC,BBC-14-122,122,14,13,ARM D,4,ARM D,4,Y,N,N,N,,,1,DAY 1,2006-12-18,18DEC2006,,,,,Pruritis Assessment,PRURPS,1,3,,,,,,,,,,
BBC,BBC-14-123,123,14,85,ARM A,1,ARM A,1,Y,Y,Y,Y,19DEC2006,12MAR2007,1,DAY 1,2006-12-19,19DEC2006,1,,Day 1 Baseline,0,Pruritis Assessment,PRURPS,1,3,3,,,,,,,,Y,Y
BBC,BBC-14-123,123,14,86,ARM A,1,ARM A,1,Y,Y,Y,Y,19DEC2006,12MAR2007,2,WEEK 2,2007-01-03,03JAN2007,16,,Week 2,2,Pruritis Assessment,PRURPS,1,3,3,0,8-22 DAYS,15,1,8,22,DAYS,,Y
BBC,BBC-14-123,123,14,87,ARM A,1,ARM A,1,Y,Y,Y,Y,19DEC2006,12MAR2007,4,WEEK 4,2007-01-17,17JAN2007,30,,Week 4,4,Pruritis Assessment,PRURPS,1,2,3,-1,23-36 DAYS,29,1,23,36,DAYS,,Y
BBC,BBC-14-123,123,14,88,ARM A,1,ARM A,1,Y,Y,Y,Y,19DEC2006,12MAR2007,6,WEEK 6,2007-01-30,30JAN2007,43,,Week 6,6,Pruritis Assessment,PRURPS,1,2,3,-1,37-50 DAYS,43,0,37,50,DAYS,,Y
BBC,BBC-14-123,123,14,89,ARM A,1,ARM A,1,Y,Y,Y,Y,19DEC2006,12MAR2007,8,WEEK 8,2007-02-13,13FEB2007,57,,Week 8,8,Pruritis Assessment,PRURPS,1,2,3,-1,51-71 DAYS,57,0,51,71,DAYS,,Y
BBC,BBC-14-123,123,14,90,ARM A,1,ARM A,1,Y,Y,Y,Y,19DEC2006,12MAR2007,12,WEEK 12,2007-03-13,13MAR2007,85,,Week 12,12,Pruritis Assessment,PRURPS,1,2,3,-1,72-99 DAYS,85,0,72,99,DAYS,,Y
BBC,BBC-14-123,123,14,91,ARM A,1,ARM A,1,Y,Y,Y,Y,19DEC2006,12MAR2007,16,WEEK 16,2007-04-10,10APR2007,113,,Week 16,16,Pruritis Assessment,PRURPS,1,1,3,-2,22-36 DAYS POST-LAST-DOSE,112,1,105,119,DAYS,,
BBC,BBC-14-124,124,14,85,ARM B,2,ARM B,2,Y,Y,Y,Y,28DEC2006,21MAR2007,1,DAY 1,2006-12-28,28DEC2006,1,,Day 1 Baseline,0,Pruritis Assessment,PRURPS,1,2,2,,,,,,,,Y,Y
BBC,BBC-14-124,124,14,86,ARM B,2,ARM B,2,Y,Y,Y,Y,28DEC2006,21MAR2007,2,WEEK 2,2007-01-16,16JAN2007,20,,Week 2,2,Pruritis Assessment,PRURPS,1,1,2,-1,8-22 DAYS,15,5,8,22,DAYS,,Y
BBC,BBC-14-124,124,14,87,ARM B,2,ARM B,2,Y,Y,Y,Y,28DEC2006,21MAR2007,4,WEEK 4,2007-01-25,25JAN2007,29,,Week 4,4,Pruritis Assessment,PRURPS,1,1,2,-1,23-36 DAYS,29,0,23,36,DAYS,,Y
BBC,BBC-14-124,124,14,88,ARM B,2,ARM B,2,Y,Y,Y,Y,28DEC2006,21MAR2007,6,WEEK 6,2007-02-08,08FEB2007,43,,Week 6,6,Pruritis Assessment,PRURPS,1,1,2,-1,37-50 DAYS,43,0,37,50,DAYS,,Y
BBC,BBC-14-124,124,14,89,ARM B,2,ARM B,2,Y,Y,Y,Y,28DEC2006,21MAR2007,8,WEEK 8,2007-02-22,22FEB2007,57,,Week 8,8,Pruritis Assessment,PRURPS,1,1,2,-1,51-71 DAYS,57,0,51,71,DAYS,,Y
BBC,BBC-14-124,124,14,90,ARM B,2,ARM B,2,Y,Y,Y,Y,28DEC2006,21MAR2007,12,WEEK 12,2007-03-22,22MAR2007,85,,Week 12,12,Pruritis Assessment,PRURPS,1,1,2,-1,72-99 DAYS,85,0,72,99,DAYS,,Y
BBC,BBC-14-124,124,14,91,ARM B,2,ARM B,2,Y,Y,Y,Y,28DEC2006,21MAR2007,16,WEEK 16,2007-04-19,19APR2007,113,,Week 16,16,Pruritis Assessment,PRURPS,1,1,2,-1,22-36 DAYS POST-LAST-DOSE,112,1,105,119,DAYS,,
BBC,BBC-15-153,153,15,61,ARM D,4,ARM D,4,Y,Y,Y,N,04JAN2007,17FEB2007,1,DAY 1,2007-01-04,04JAN2007,1,,Day 1 Baseline,0,Pruritis Assessment,PRURPS,1,0,0,,,,,,,,Y,Y
BBC,BBC-15-153,153,15,62,ARM D,4,ARM D,4,Y,Y,Y,N,04JAN2007,17FEB2007,2,WEEK 2,2007-01-18,18JAN2007,15,,Week 2,2,Pruritis Assessment,PRURPS,1,0,0,0,8-22 DAYS,15,0,8,22,DAYS,,Y
BBC,BBC-15-153,153,15,63,ARM D,4,ARM D,4,Y,Y,Y,N,04JAN2007,17FEB2007,4,WEEK 4,2007-02-01,01FEB2007,29,,Week 4,4,Pruritis Assessment,PRURPS,1,0,0,0,23-36 DAYS,29,0,23,36,DAYS,,Y
BBC,BBC-15-153,153,15,64,ARM D,4,ARM D,4,Y,Y,Y,N,04JAN2007,17FEB2007,6,WEEK 6,2007-02-15,15FEB2007,43,,Week 6,6,Pruritis Assessment,PRURPS,1,3,0,3,37-50 DAYS,43,0,37,50,DAYS,,Y
BBC,BBC-15-153,153,15,65,ARM D,4,ARM D,4,Y,Y,Y,N,04JAN2007,17FEB2007,20,END OF STUDY EARLY TERMINATION,2007-02-22,22FEB2007,50,,Week 6,6,Pruritis Assessment,PRURPS,1,1,0,1,37-50 DAYS,43,7,37,50,DAYS,,
BBC,BBC-15-154,154,15,49,ARM C,3,ARM C,3,Y,Y,Y,N,10JAN2007,12FEB2007,1,DAY 1,2007-01-10,10JAN2007,1,,Day 1 Baseline,0,Pruritis Assessment,PRURPS,1,3,3,,,,,,,,Y,Y
BBC,BBC-15-154,154,15,50,ARM C,3,ARM C,3,Y,Y,Y,N,10JAN2007,12FEB2007,2,WEEK 2,2007-01-23,23JAN2007,14,,Week 2,2,Pruritis Assessment,PRURPS,1,3,3,0,8-22 DAYS,15,1,8,22,DAYS,,Y
BBC,BBC-15-154,154,15,52,ARM C,3,ARM C,3,Y,Y,Y,N,10JAN2007,12FEB2007,20,END OF STUDY EARLY TERMINATION,2007-02-12,12FEB2007,34,,Week 4,4,Pruritis Assessment,PRURPS,1,3,3,0,23-36 DAYS,29,5,23,36,DAYS,,Y
BBC,BBC-15-154,154,15,51,ARM C,3,ARM C,3,Y,Y,Y,N,10JAN2007,12FEB2007,16,WEEK 16,2007-03-14,14MAR2007,64,,Week 16,16,Pruritis Assessment,PRURPS,1,3,3,0,22-36 DAYS POST-LAST-DOSE,62,2,55,69,DAYS,,
BBC,BBC-15-155,155,15,85,ARM A,1,ARM A,1,Y,Y,Y,Y,11JAN2007,05APR2007,1,DAY 1,2007-01-11,11JAN2007,1,,Day 1 Baseline,0,Pruritis Assessment,PRURPS,1,1,1,,,,,,,,Y,Y
BBC,BBC-15-155,155,15,86,ARM A,1,ARM A,1,Y,Y,Y,Y,11JAN2007,05APR2007,2,WEEK 2,2007-01-26,26JAN2007,16,,Week 2,2,Pruritis Assessment,PRURPS,1,1,1,0,8-22 DAYS,15,1,8,22,DAYS,,Y
BBC,BBC-15-155,155,15,87,ARM A,1,ARM A,1,Y,Y,Y,Y,11JAN2007,05APR2007,4,WEEK 4,2007-02-08,08FEB2007,29,,Week 4,4,Pruritis Assessment,PRURPS,1,1,1,0,23-36 DAYS,29,0,23,36,DAYS,,Y
BBC,BBC-15-155,155,15,88,ARM A,1,ARM A,1,Y,Y,Y,Y,11JAN2007,05APR2007,6,WEEK 6,2007-02-22,22FEB2007,43,,Week 6,6,Pruritis Assessment,PRURPS,1,1,1,0,37-50 DAYS,43,0,37,50,DAYS,,Y
BBC,BBC-15-155,155,15,89,ARM A,1,ARM A,1,Y,Y,Y,Y,11JAN2007,05APR2007,8,WEEK 8,2007-03-08,08MAR2007,57,,Week 8,8,Pruritis Assessment,PRURPS,1,1,1,0,51-71 DAYS,57,0,51,71,DAYS,,Y
BBC,BBC-15-155,155,15,90,ARM A,1,ARM A,1,Y,Y,Y,Y,11JAN2007,05APR2007,12,WEEK 12,2007-04-05,05APR2007,85,,Week 12,12,Pruritis Assessment,PRURPS,1,1,1,0,72-99 DAYS,85,0,72,99,DAYS,,Y
BBC,BBC-15-155,155,15,91,ARM A,1,ARM A,1,Y,Y,Y,Y,11JAN2007,05APR2007,16,WEEK 16,2007-05-03,03MAY2007,113,,Week 16,16,Pruritis Assessment,PRURPS,1,1,1,0,22-36 DAYS POST-LAST-DOSE,113,0,106,120,DAYS,,
BBC,BBC-15-156,156,15,85,ARM B,2,ARM B,2,Y,Y,Y,N,11JAN2007,05APR2007,1,DAY 1,2007-01-11,11JAN2007,1,,Day 1 Baseline,0,Pruritis Assessment,PRURPS,1,2,2,,,,,,,,Y,Y
BBC,BBC-15-156,156,15,86,ARM B,2,ARM B,2,Y,Y,Y,N,11JAN2007,05APR2007,2,WEEK 2,2007-01-25,25JAN2007,15,,Week 2,2,Pruritis Assessment,PRURPS,1,2,2,0,8-22 DAYS,15,0,8,22,DAYS,,Y
BBC,BBC-15-156,156,15,87,ARM B,2,ARM B,2,Y,Y,Y,N,11JAN2007,05APR2007,4,WEEK 4,2007-02-15,15FEB2007,36,,Week 4,4,Pruritis Assessment,PRURPS,1,1,2,-1,23-36 DAYS,29,7,23,36,DAYS,,Y
BBC,BBC-15-156,156,15,88,ARM B,2,ARM B,2,Y,Y,Y,N,11JAN2007,05APR2007,6,WEEK 6,2007-02-22,22FEB2007,43,,Week 6,6,Pruritis Assessment,PRURPS,1,1,2,-1,37-50 DAYS,43,0,37,50,DAYS,,Y
BBC,BBC-15-156,156,15,89,ARM B,2,ARM B,2,Y,Y,Y,N,11JAN2007,05APR2007,8,WEEK 8,2007-03-08,08MAR2007,57,,Week 8,8,Pruritis Assessment,PRURPS,1,1,2,-1,51-71 DAYS,57,0,51,71,DAYS,,Y
BBC,BBC-15-156,156,15,90,ARM B,2,ARM B,2,Y,Y,Y,N,11JAN2007,05APR2007,12,WEEK 12,2007-04-05,05APR2007,85,,Week 12,12,Pruritis Assessment,PRURPS,1,1,2,-1,72-99 DAYS,85,0,72,99,DAYS,,Y
BBC,BBC-15-156,156,15,91,ARM B,2,ARM B,2,Y,Y,Y,N,11JAN2007,05APR2007,16,WEEK 16,2007-05-03,03MAY2007,113,,Week 16,16,Pruritis Assessment,PRURPS,1,1,2,-1,22-36 DAYS POST-LAST-DOSE,113,0,106,120,DAYS,,
BBC,BBC-16-045,045,16,85,ARM C,3,ARM C,3,Y,Y,Y,Y,28DEC2006,21MAR2007,1,DAY 1,2006-12-28,28DEC2006,1,,Day 1 Baseline,0,Pruritis Assessment,PRURPS,1,5,5,,,,,,,,Y,Y
BBC,BBC-16-045,045,16,86,ARM C,3,ARM C,3,Y,Y,Y,Y,28DEC2006,21MAR2007,2,WEEK 2,2007-01-11,11JAN2007,15,,Week 2,2,Pruritis Assessment,PRURPS,1,3,5,-2,8-22 DAYS,15,0,8,22,DAYS,,Y
BBC,BBC-16-045,045,16,87,ARM C,3,ARM C,3,Y,Y,Y,Y,28DEC2006,21MAR2007,4,WEEK 4,2007-01-24,24JAN2007,28,,Week 4,4,Pruritis Assessment,PRURPS,1,3,5,-2,23-36 DAYS,29,1,23,36,DAYS,,Y
BBC,BBC-16-045,045,16,88,ARM C,3,ARM C,3,Y,Y,Y,Y,28DEC2006,21MAR2007,6,WEEK 6,2007-02-07,07FEB2007,42,,Week 6,6,Pruritis Assessment,PRURPS,1,2,5,-3,37-50 DAYS,43,1,37,50,DAYS,,Y
BBC,BBC-16-045,045,16,89,ARM C,3,ARM C,3,Y,Y,Y,Y,28DEC2006,21MAR2007,8,WEEK 8,2007-02-21,21FEB2007,56,,Week 8,8,Pruritis Assessment,PRURPS,1,3,5,-2,51-71 DAYS,57,1,51,71,DAYS,,Y
BBC,BBC-16-045,045,16,90,ARM C,3,ARM C,3,Y,Y,Y,Y,28DEC2006,21MAR2007,12,WEEK 12,2007-03-21,21MAR2007,84,,Week 12,12,Pruritis Assessment,PRURPS,1,4,5,-1,72-99 DAYS,85,1,72,99,DAYS,,Y
BBC,BBC-16-045,045,16,91,ARM C,3,ARM C,3,Y,Y,Y,Y,28DEC2006,21MAR2007,16,WEEK 16,2007-04-18,18APR2007,112,,Week 16,16,Pruritis Assessment,PRURPS,1,1,5,-4,22-36 DAYS POST-LAST-DOSE,112,0,105,119,DAYS,,
BBC,BBC-16-046,046,16,49,ARM D,4,ARM D,4,Y,Y,Y,N,28DEC2006,27JAN2007,1,DAY 1,2006-12-28,28DEC2006,1,,Day 1 Baseline,0,Pruritis Assessment,PRURPS,1,3,3,,,,,,,,Y,Y
BBC,BBC-16-046,046,16,50,ARM D,4,ARM D,4,Y,Y,Y,N,28DEC2006,27JAN2007,2,WEEK 2,2007-01-11,11JAN2007,15,,Week 2,2,Pruritis Assessment,PRURPS,1,4,3,1,8-22 DAYS,15,0,8,22,DAYS,,Y
BBC,BBC-16-046,046,16,51,ARM D,4,ARM D,4,Y,Y,Y,N,28DEC2006,27JAN2007,4,WEEK 4,2007-01-25,25JAN2007,29,,Week 4,4,Pruritis Assessment,PRURPS,1,1,3,-2,23-36 DAYS,29,0,23,36,DAYS,,Y
BBC,BBC-16-046,046,16,52,ARM D,4,ARM D,4,Y,Y,Y,N,28DEC2006,27JAN2007,20,END OF STUDY EARLY TERMINATION,2007-01-27,27JAN2007,31,,Week 4,4,Pruritis Assessment,PRURPS,1,1,3,-2,23-36 DAYS,29,2,23,36,DAYS,,
BBC,BBC-16-047,047,16,37,ARM A,1,ARM A,1,Y,Y,Y,N,02JAN2007,31JAN2007,1,DAY 1,2007-01-02,02JAN2007,1,,Day 1 Baseline,0,Pruritis Assessment,PRURPS,1,4,4,,,,,,,,Y,Y
BBC,BBC-16-047,047,16,38,ARM A,1,ARM A,1,Y,Y,Y,N,02JAN2007,31JAN2007,2,WEEK 2,2007-01-18,18JAN2007,17,,Week 2,2,Pruritis Assessment,PRURPS,1,2,4,-2,8-22 DAYS,15,2,8,22,DAYS,,Y
BBC,BBC-16-047,047,16,39,ARM A,1,ARM A,1,Y,Y,Y,N,02JAN2007,31JAN2007,20,END OF STUDY EARLY TERMINATION,2007-02-01,01FEB2007,31,,Week 4,4,Pruritis Assessment,PRURPS,1,3,4,-1,23-36 DAYS,29,2,23,36,DAYS,,Y
BBC,BBC-16-157,157,16,85,ARM A,1,ARM A,1,Y,Y,Y,Y,14DEC2006,07MAR2007,1,DAY 1,2006-12-14,14DEC2006,1,,Day 1 Baseline,0,Pruritis Assessment,PRURPS,1,0,0,,,,,,,,Y,Y
BBC,BBC-16-157,157,16,86,ARM A,1,ARM A,1,Y,Y,Y,Y,14DEC2006,07MAR2007,2,WEEK 2,2006-12-28,28DEC2006,15,,Week 2,2,Pruritis Assessment,PRURPS,1,1,0,1,8-22 DAYS,15,0,8,22,DAYS,,Y
BBC,BBC-16-157,157,16,87,ARM A,1,ARM A,1,Y,Y,Y,Y,14DEC2006,07MAR2007,4,WEEK 4,2007-01-11,11JAN2007,29,,Week 4,4,Pruritis Assessment,PRURPS,1,1,0,1,23-36 DAYS,29,0,23,36,DAYS,,Y
BBC,BBC-16-157,157,16,88,ARM A,1,ARM A,1,Y,Y,Y,Y,14DEC2006,07MAR2007,6,WEEK 6,2007-01-23,23JAN2007,41,,Week 6,6,Pruritis Assessment,PRURPS,1,1,0,1,37-50 DAYS,43,2,37,50,DAYS,,Y
BBC,BBC-16-157,157,16,89,ARM A,1,ARM A,1,Y,Y,Y,Y,14DEC2006,07MAR2007,8,WEEK 8,2007-02-08,08FEB2007,57,,Week 8,8,Pruritis Assessment,PRURPS,1,1,0,1,51-71 DAYS,57,0,51,71,DAYS,,Y
BBC,BBC-16-157,157,16,90,ARM A,1,ARM A,1,Y,Y,Y,Y,14DEC2006,07MAR2007,12,WEEK 12,2007-03-08,08MAR2007,85,,Week 12,12,Pruritis Assessment,PRURPS,1,1,0,1,72-99 DAYS,85,0,72,99,DAYS,,Y
BBC,BBC-16-157,157,16,91,ARM A,1,ARM A,1,Y,Y,Y,Y,14DEC2006,07MAR2007,16,WEEK 16,2007-04-05,05APR2007,113,,Week 16,16,Pruritis Assessment,PRURPS,1,1,0,1,22-36 DAYS POST-LAST-DOSE,112,1,105,119,DAYS,,
BBC,BBC-16-158,158,16,73,ARM B,2,ARM B,2,Y,Y,Y,N,19DEC2006,20MAR2007,1,DAY 1,2006-12-19,19DEC2006,1,,Day 1 Baseline,0,Pruritis Assessment,PRURPS,1,3,3,,,,,,,,Y,Y
BBC,BBC-16-158,158,16,74,ARM B,2,ARM B,2,Y,Y,Y,N,19DEC2006,20MAR2007,2,WEEK 2,2007-01-04,04JAN2007,17,,Week 2,2,Pruritis Assessment,PRURPS,1,1,3,-2,8-22 DAYS,15,2,8,22,DAYS,,Y
BBC,BBC-16-158,158,16,75,ARM B,2,ARM B,2,Y,Y,Y,N,19DEC2006,20MAR2007,4,WEEK 4,2007-01-18,18JAN2007,31,,Week 4,4,Pruritis Assessment,PRURPS,1,1,3,-2,23-36 DAYS,29,2,23,36,DAYS,,Y
BBC,BBC-16-158,158,16,76,ARM B,2,ARM B,2,Y,Y,Y,N,19DEC2006,20MAR2007,8,WEEK 8,2007-02-15,15FEB2007,59,,Week 8,8,Pruritis Assessment,PRURPS,1,1,3,-2,51-71 DAYS,57,2,51,71,DAYS,,Y
BBC,BBC-16-158,158,16,77,ARM B,2,ARM B,2,Y,Y,Y,N,19DEC2006,20MAR2007,12,WEEK 12,2007-03-21,21MAR2007,93,,Week 12,12,Pruritis Assessment,PRURPS,1,0,3,-3,72-99 DAYS,85,8,72,99,DAYS,,Y
BBC,BBC-16-158,158,16,78,ARM B,2,ARM B,2,Y,Y,Y,N,19DEC2006,20MAR2007,16,WEEK 16,2007-04-12,12APR2007,115,,Week 16,16,Pruritis Assessment,PRURPS,1,5,3,2,22-36 DAYS POST-LAST-DOSE,120,5,113,127,DAYS,,
BBC,BBC-16-159,159,16,85,ARM C,3,ARM C,3,Y,Y,Y,Y,21DEC2006,14MAR2007,1,DAY 1,2006-12-21,21DEC2006,1,,Day 1 Baseline,0,Pruritis Assessment,PRURPS,1,4,4,,,,,,,,Y,Y
BBC,BBC-16-159,159,16,86,ARM C,3,ARM C,3,Y,Y,Y,Y,21DEC2006,14MAR2007,2,WEEK 2,2007-01-04,04JAN2007,15,,Week 2,2,Pruritis Assessment,PRURPS,1,3,4,-1,8-22 DAYS,15,0,8,22,DAYS,,Y
BBC,BBC-16-159,159,16,87,ARM C,3,ARM C,3,Y,Y,Y,Y,21DEC2006,14MAR2007,4,WEEK 4,2007-01-18,18JAN2007,29,,Week 4,4,Pruritis Assessment,PRURPS,1,2,4,-2,23-36 DAYS,29,0,23,36,DAYS,,Y
BBC,BBC-16-159,159,16,88,ARM C,3,ARM C,3,Y,Y,Y,Y,21DEC2006,14MAR2007,6,WEEK 6,2007-02-01,01FEB2007,43,,Week 6,6,Pruritis Assessment,PRURPS,1,3,4,-1,37-50 DAYS,43,0,37,50,DAYS,,Y
BBC,BBC-16-159,159,16,89,ARM C,3,ARM C,3,Y,Y,Y,Y,21DEC2006,14MAR2007,8,WEEK 8,2007-02-15,15FEB2007,57,,Week 8,8,Pruritis Assessment,PRURPS,1,1,4,-3,51-71 DAYS,57,0,51,71,DAYS,,Y
BBC,BBC-16-159,159,16,90,ARM C,3,ARM C,3,Y,Y,Y,Y,21DEC2006,14MAR2007,12,WEEK 12,2007-03-15,15MAR2007,85,,Week 12,12,Pruritis Assessment,PRURPS,1,1,4,-3,72-99 DAYS,85,0,72,99,DAYS,,Y
BBC,BBC-16-159,159,16,91,ARM C,3,ARM C,3,Y,Y,Y,Y,21DEC2006,14MAR2007,16,WEEK 16,2007-04-12,12APR2007,113,,Week 16,16,Pruritis Assessment,PRURPS,1,3,4,-1,22-36 DAYS POST-LAST-DOSE,112,1,105,119,DAYS,,
BBC,BBC-16-160,160,16,85,ARM D,4,ARM D,4,Y,Y,Y,Y,28DEC2006,19MAR2007,1,DAY 1,2006-12-28,28DEC2006,1,,Day 1 Baseline,0,Pruritis Assessment,PRURPS,1,2,2,,,,,,,,Y,Y
BBC,BBC-16-160,160,16,86,ARM D,4,ARM D,4,Y,Y,Y,Y,28DEC2006,19MAR2007,2,WEEK 2,2007-01-11,11JAN2007,15,,Week 2,2,Pruritis Assessment,PRURPS,1,1,2,-1,8-22 DAYS,15,0,8,22,DAYS,,Y
BBC,BBC-16-160,160,16,87,ARM D,4,ARM D,4,Y,Y,Y,Y,28DEC2006,19MAR2007,4,WEEK 4,2007-01-25,25JAN2007,29,,Week 4,4,Pruritis Assessment,PRURPS,1,2,2,0,23-36 DAYS,29,0,23,36,DAYS,,Y
BBC,BBC-16-160,160,16,88,ARM D,4,ARM D,4,Y,Y,Y,Y,28DEC2006,19MAR2007,6,WEEK 6,2007-02-13,13FEB2007,48,,Week 6,6,Pruritis Assessment,PRURPS,1,2,2,0,37-50 DAYS,43,5,37,50,DAYS,,Y
BBC,BBC-16-160,160,16,89,ARM D,4,ARM D,4,Y,Y,Y,Y,28DEC2006,19MAR2007,8,WEEK 8,2007-02-20,20FEB2007,55,,Week 8,8,Pruritis Assessment,PRURPS,1,2,2,0,51-71 DAYS,57,2,51,71,DAYS,,Y
BBC,BBC-16-160,160,16,90,ARM D,4,ARM D,4,Y,Y,Y,Y,28DEC2006,19MAR2007,12,WEEK 12,2007-03-20,20MAR2007,83,,Week 12,12,Pruritis Assessment,PRURPS,1,1,2,-1,72-99 DAYS,85,2,72,99,DAYS,,Y
BBC,BBC-16-160,160,16,91,ARM D,4,ARM D,4,Y,Y,Y,Y,28DEC2006,19MAR2007,16,WEEK 16,2007-04-17,17APR2007,111,,Week 16,16,Pruritis Assessment,PRURPS,1,1,2,-1,22-36 DAYS POST-LAST-DOSE,110,1,103,117,DAYS,,
