STUDYID,USUBJID,SUBJID,SITEID,QSSEQ,TRTP,TRTPN,TRTA,TRTAN,RANDFL,SAFFL,MITTFL,PPROTFL,TRTSDT,TRTEDT,PSORTRTR,FUPVISIT,ADT,ADY,ADTF,AVISIT,AVISITN,PARAM,PARAMCD,PARAMN,PARAMTYP,PARCAT1,AVAL,AVALC,BASE,BASEC,CHG,PCHG,DTYPE,AWRANGE,AWTARGET,AWTDIFF,AWLO,AWHI,AWU,ABLFL,ANL01FL,CRIT1,CRIT1FL
BBC,BBC-10-041,041,10,17,ARM B,2,ARM B,2,Y,N,N,N,,,N,N,20DEC2006,,,,,Target Plaque 1 Erythema Severity Score,TP1ERY,1,,Target Plaque 1,3,3.0,,0.0,,,,,,,,,,,,,
BBC,BBC-10-041,041,10,18,ARM B,2,ARM B,2,Y,N,N,N,,,N,N,20DEC2006,,,,,Target Plaque 1 Induration (Elevation) Severity Score,TP1IND,2,,Target Plaque 1,3,3.0,,0.0,,,,,,,,,,,,,
BBC,BBC-10-041,041,10,19,ARM B,2,ARM B,2,Y,N,N,N,,,N,N,20DEC2006,,,,,Target Plaque 1 Scaling Severity Score,TP1SCAL,3,,Target Plaque 1,4,4.0,,0.0,,,,,,,,,,,,,
BBC,BBC-10-041,041,10,16,ARM B,2,ARM B,2,Y,N,N,N,,,N,N,20DEC2006,,,,,Target Plaque 1 CPSS Score,TP1CPSS,4,,Target Plaque 1,10,10.0,,0.0,,,,,,,,,,,,,
BBC,BBC-10-041,041,10,22,ARM B,2,ARM B,2,Y,N,N,N,,,N,N,20DEC2006,,,,,Target Plaque 2 Erythema Severity Score,TP2ERY,7,,Target Plaque 2,2,2.0,,0.0,,,,,,,,,,,,,
BBC,BBC-10-041,041,10,23,ARM B,2,ARM B,2,Y,N,N,N,,,N,N,20DEC2006,,,,,Target Plaque 2 Induration (Elevation) Severity Score,TP2IND,8,,Target Plaque 2,2,2.0,,0.0,,,,,,,,,,,,,
BBC,BBC-10-041,041,10,24,ARM B,2,ARM B,2,Y,N,N,N,,,N,N,20DEC2006,,,,,Target Plaque 2 Scaling Severity Score,TP2SCAL,9,,Target Plaque 2,2,2.0,,0.0,,,,,,,,,,,,,
BBC,BBC-10-041,041,10,21,ARM B,2,ARM B,2,Y,N,N,N,,,N,N,20DEC2006,,,,,Target Plaque 2 CPSS Score,TP2CPSS,10,,Target Plaque 2,6,6.0,,0.0,,,,,,,,,,,,,
BBC,BBC-10-041,041,10,,ARM B,2,ARM B,2,Y,N,N,N,,,N,N,20DEC2006,,,,,Average Erythema Severity Score,AVGERY,13,DERIVED,Average,2.5,2.5,,0.0,,,,,,,,,,,,,
BBC,BBC-10-041,041,10,,ARM B,2,ARM B,2,Y,N,N,N,,,N,N,20DEC2006,,,,,Average Induration (Elevation) Severity Score,AVGIND,14,DERIVED,Average,2.5,2.5,,0.0,,,,,,,,,,,,,
BBC,BBC-10-041,041,10,,ARM B,2,ARM B,2,Y,N,N,N,,,N,N,20DEC2006,,,,,Average Scaling Severity Score,AVGSCAL,15,DERIVED,Average,3,3.0,,0.0,,,,,,,,,,,,,
BBC,BBC-10-041,041,10,,ARM B,2,ARM B,2,Y,N,N,N,,,N,N,20DEC2006,,,,,Average CPSS Score,AVGCPSS,16,DERIVED,Average,8,8.0,,0.0,,,,,,,,,,,,,
BBC,BBC-10-042,042,10,119,ARM C,3,ARM C,3,Y,Y,Y,Y,10JAN2007,13APR2007,N,Y,02MAY2007,113,,,,Target Plaque 1 Erythema Severity Score,TP1ERY,1,,Target Plaque 1,3,3.0,2,2.0,1,50,,,,,,,,,,,
BBC,BBC-10-042,042,10,113,ARM C,3,ARM C,3,Y,Y,Y,Y,10JAN2007,13APR2007,N,Y,10JAN2007,1,,Day 1 Baseline,0,Target Plaque 1 Erythema Severity Score,TP1ERY,1,,Target Plaque 1,2,2.0,2,2.0,,,,,,,,,,Y,Y,,
BBC,BBC-10-042,042,10,114,ARM C,3,ARM C,3,Y,Y,Y,Y,10JAN2007,13APR2007,N,Y,24JAN2007,15,,Week 2,2,Target Plaque 1 Erythema Severity Score,TP1ERY,1,,Target Plaque 1,2,2.0,2,2.0,0,0,,8-22 DAYS,15,0,8,22,DAYS,,Y,,
BBC,BBC-10-042,042,10,115,ARM C,3,ARM C,3,Y,Y,Y,Y,10JAN2007,13APR2007,N,Y,09FEB2007,31,,Week 4,4,Target Plaque 1 Erythema Severity Score,TP1ERY,1,,Target Plaque 1,3,3.0,2,2.0,1,50,,23-36 DAYS,29,2,23,36,DAYS,,Y,,
BBC,BBC-10-042,042,10,116,ARM C,3,ARM C,3,Y,Y,Y,Y,10JAN2007,13APR2007,N,Y,23FEB2007,45,,Week 6,6,Target Plaque 1 Erythema Severity Score,TP1ERY,1,,Target Plaque 1,3,3.0,2,2.0,1,50,,37-50 DAYS,43,2,37,50,DAYS,,Y,,
BBC,BBC-10-042,042,10,117,ARM C,3,ARM C,3,Y,Y,Y,Y,10JAN2007,13APR2007,N,Y,12MAR2007,62,,Week 8,8,Target Plaque 1 Erythema Severity Score,TP1ERY,1,,Target Plaque 1,3,3.0,2,2.0,1,50,,51-71 DAYS,57,5,51,71,DAYS,,Y,,
BBC,BBC-10-042,042,10,118,ARM C,3,ARM C,3,Y,Y,Y,Y,10JAN2007,13APR2007,N,Y,13APR2007,94,,Week 12,12,Target Plaque 1 Erythema Severity Score,TP1ERY,1,,Target Plaque 1,3,3.0,2,2.0,1,50,,72-99 DAYS,85,9,72,99,DAYS,,Y,,
BBC,BBC-10-042,042,10,126,ARM C,3,ARM C,3,Y,Y,Y,Y,10JAN2007,13APR2007,N,Y,02MAY2007,113,,,,Target Plaque 1 Induration (Elevation) Severity Score,TP1IND,2,,Target Plaque 1,3,3.0,2,2.0,1,50,,,,,,,,,,,
BBC,BBC-10-042,042,10,120,ARM C,3,ARM C,3,Y,Y,Y,Y,10JAN2007,13APR2007,N,Y,10JAN2007,1,,Day 1 Baseline,0,Target Plaque 1 Induration (Elevation) Severity Score,TP1IND,2,,Target Plaque 1,2,2.0,2,2.0,,,,,,,,,,Y,Y,,
BBC,BBC-10-042,042,10,121,ARM C,3,ARM C,3,Y,Y,Y,Y,10JAN2007,13APR2007,N,Y,24JAN2007,15,,Week 2,2,Target Plaque 1 Induration (Elevation) Severity Score,TP1IND,2,,Target Plaque 1,1,1.0,2,2.0,-1,-50,,8-22 DAYS,15,0,8,22,DAYS,,Y,,
BBC,BBC-10-042,042,10,122,ARM C,3,ARM C,3,Y,Y,Y,Y,10JAN2007,13APR2007,N,Y,09FEB2007,31,,Week 4,4,Target Plaque 1 Induration (Elevation) Severity Score,TP1IND,2,,Target Plaque 1,3,3.0,2,2.0,1,50,,23-36 DAYS,29,2,23,36,DAYS,,Y,,
BBC,BBC-10-042,042,10,123,ARM C,3,ARM C,3,Y,Y,Y,Y,10JAN2007,13APR2007,N,Y,23FEB2007,45,,Week 6,6,Target Plaque 1 Induration (Elevation) Severity Score,TP1IND,2,,Target Plaque 1,2,2.0,2,2.0,0,0,,37-50 DAYS,43,2,37,50,DAYS,,Y,,
BBC,BBC-10-042,042,10,124,ARM C,3,ARM C,3,Y,Y,Y,Y,10JAN2007,13APR2007,N,Y,12MAR2007,62,,Week 8,8,Target Plaque 1 Induration (Elevation) Severity Score,TP1IND,2,,Target Plaque 1,3,3.0,2,2.0,1,50,,51-71 DAYS,57,5,51,71,DAYS,,Y,,
BBC,BBC-10-042,042,10,125,ARM C,3,ARM C,3,Y,Y,Y,Y,10JAN2007,13APR2007,N,Y,13APR2007,94,,Week 12,12,Target Plaque 1 Induration (Elevation) Severity Score,TP1IND,2,,Target Plaque 1,3,3.0,2,2.0,1,50,,72-99 DAYS,85,9,72,99,DAYS,,Y,,
BBC,BBC-10-042,042,10,133,ARM C,3,ARM C,3,Y,Y,Y,Y,10JAN2007,13APR2007,N,Y,02MAY2007,113,,,,Target Plaque 1 Scaling Severity Score,TP1SCAL,3,,Target Plaque 1,4,4.0,3,3.0,1,33.3,,,,,,,,,,,
BBC,BBC-10-042,042,10,127,ARM C,3,ARM C,3,Y,Y,Y,Y,10JAN2007,13APR2007,N,Y,10JAN2007,1,,Day 1 Baseline,0,Target Plaque 1 Scaling Severity Score,TP1SCAL,3,,Target Plaque 1,3,3.0,3,3.0,,,,,,,,,,Y,Y,,
BBC,BBC-10-042,042,10,128,ARM C,3,ARM C,3,Y,Y,Y,Y,10JAN2007,13APR2007,N,Y,24JAN2007,15,,Week 2,2,Target Plaque 1 Scaling Severity Score,TP1SCAL,3,,Target Plaque 1,2,2.0,3,3.0,-1,-33.3,,8-22 DAYS,15,0,8,22,DAYS,,Y,,
BBC,BBC-10-042,042,10,129,ARM C,3,ARM C,3,Y,Y,Y,Y,10JAN2007,13APR2007,N,Y,09FEB2007,31,,Week 4,4,Target Plaque 1 Scaling Severity Score,TP1SCAL,3,,Target Plaque 1,3,3.0,3,3.0,0,0,,23-36 DAYS,29,2,23,36,DAYS,,Y,,
BBC,BBC-10-042,042,10,130,ARM C,3,ARM C,3,Y,Y,Y,Y,10JAN2007,13APR2007,N,Y,23FEB2007,45,,Week 6,6,Target Plaque 1 Scaling Severity Score,TP1SCAL,3,,Target Plaque 1,2,2.0,3,3.0,-1,-33.3,,37-50 DAYS,43,2,37,50,DAYS,,Y,,
BBC,BBC-10-042,042,10,131,ARM C,3,ARM C,3,Y,Y,Y,Y,10JAN2007,13APR2007,N,Y,12MAR2007,62,,Week 8,8,Target Plaque 1 Scaling Severity Score,TP1SCAL,3,,Target Plaque 1,4,4.0,3,3.0,1,33.3,,51-71 DAYS,57,5,51,71,DAYS,,Y,,
BBC,BBC-10-042,042,10,132,ARM C,3,ARM C,3,Y,Y,Y,Y,10JAN2007,13APR2007,N,Y,13APR2007,94,,Week 12,12,Target Plaque 1 Scaling Severity Score,TP1SCAL,3,,Target Plaque 1,2,2.0,3,3.0,-1,-33.3,,72-99 DAYS,85,9,72,99,DAYS,,Y,,
BBC,BBC-10-042,042,10,112,ARM C,3,ARM C,3,Y,Y,Y,Y,10JAN2007,13APR2007,N,Y,02MAY2007,113,,,,Target Plaque 1 CPSS Score,TP1CPSS,4,,Target Plaque 1,10,10.0,7,7.0,3,42.9,,,,,,,,,,,
BBC,BBC-10-042,042,10,106,ARM C,3,ARM C,3,Y,Y,Y,Y,10JAN2007,13APR2007,N,Y,10JAN2007,1,,Day 1 Baseline,0,Target Plaque 1 CPSS Score,TP1CPSS,4,,Target Plaque 1,7,7.0,7,7.0,,,,,,,,,,Y,Y,,
BBC,BBC-10-042,042,10,107,ARM C,3,ARM C,3,Y,Y,Y,Y,10JAN2007,13APR2007,N,Y,24JAN2007,15,,Week 2,2,Target Plaque 1 CPSS Score,TP1CPSS,4,,Target Plaque 1,5,5.0,7,7.0,-2,-28.6,,8-22 DAYS,15,0,8,22,DAYS,,Y,,
BBC,BBC-10-042,042,10,108,ARM C,3,ARM C,3,Y,Y,Y,Y,10JAN2007,13APR2007,N,Y,09FEB2007,31,,Week 4,4,Target Plaque 1 CPSS Score,TP1CPSS,4,,Target Plaque 1,9,9.0,7,7.0,2,28.6,,23-36 DAYS,29,2,23,36,DAYS,,Y,,
BBC,BBC-10-042,042,10,109,ARM C,3,ARM C,3,Y,Y,Y,Y,10JAN2007,13APR2007,N,Y,23FEB2007,45,,Week 6,6,Target Plaque 1 CPSS Score,TP1CPSS,4,,Target Plaque 1,7,7.0,7,7.0,0,0,,37-50 DAYS,43,2,37,50,DAYS,,Y,,
BBC,BBC-10-042,042,10,110,ARM C,3,ARM C,3,Y,Y,Y,Y,10JAN2007,13APR2007,N,Y,12MAR2007,62,,Week 8,8,Target Plaque 1 CPSS Score,TP1CPSS,4,,Target Plaque 1,10,10.0,7,7.0,3,42.9,,51-71 DAYS,57,5,51,71,DAYS,,Y,,
BBC,BBC-10-042,042,10,111,ARM C,3,ARM C,3,Y,Y,Y,Y,10JAN2007,13APR2007,N,Y,13APR2007,94,,Week 12,12,Target Plaque 1 CPSS Score,TP1CPSS,4,,Target Plaque 1,8,8.0,7,7.0,1,14.3,,72-99 DAYS,85,9,72,99,DAYS,,Y,,
BBC,BBC-10-042,042,10,107,ARM C,3,ARM C,3,Y,Y,Y,Y,10JAN2007,13APR2007,N,Y,24JAN2007,15,,Week 2,2,Target Plaque 1 CPSS Best Score During Treatment,TP1BEST,5,DERIVED,Target Plaque 1,-2,-2.0,,,,,,,,,,,,,Y,Improved During Treatment,Y
BBC,BBC-10-042,042,10,154,ARM C,3,ARM C,3,Y,Y,Y,Y,10JAN2007,13APR2007,N,Y,02MAY2007,113,,,,Target Plaque 2 Erythema Severity Score,TP2ERY,7,,Target Plaque 2,3,3.0,2,2.0,1,50,,,,,,,,,,,
BBC,BBC-10-042,042,10,148,ARM C,3,ARM C,3,Y,Y,Y,Y,10JAN2007,13APR2007,N,Y,10JAN2007,1,,Day 1 Baseline,0,Target Plaque 2 Erythema Severity Score,TP2ERY,7,,Target Plaque 2,2,2.0,2,2.0,,,,,,,,,,Y,Y,,
BBC,BBC-10-042,042,10,149,ARM C,3,ARM C,3,Y,Y,Y,Y,10JAN2007,13APR2007,N,Y,24JAN2007,15,,Week 2,2,Target Plaque 2 Erythema Severity Score,TP2ERY,7,,Target Plaque 2,2,2.0,2,2.0,0,0,,8-22 DAYS,15,0,8,22,DAYS,,Y,,
BBC,BBC-10-042,042,10,150,ARM C,3,ARM C,3,Y,Y,Y,Y,10JAN2007,13APR2007,N,Y,09FEB2007,31,,Week 4,4,Target Plaque 2 Erythema Severity Score,TP2ERY,7,,Target Plaque 2,3,3.0,2,2.0,1,50,,23-36 DAYS,29,2,23,36,DAYS,,Y,,
BBC,BBC-10-042,042,10,151,ARM C,3,ARM C,3,Y,Y,Y,Y,10JAN2007,13APR2007,N,Y,23FEB2007,45,,Week 6,6,Target Plaque 2 Erythema Severity Score,TP2ERY,7,,Target Plaque 2,3,3.0,2,2.0,1,50,,37-50 DAYS,43,2,37,50,DAYS,,Y,,
BBC,BBC-10-042,042,10,152,ARM C,3,ARM C,3,Y,Y,Y,Y,10JAN2007,13APR2007,N,Y,12MAR2007,62,,Week 8,8,Target Plaque 2 Erythema Severity Score,TP2ERY,7,,Target Plaque 2,3,3.0,2,2.0,1,50,,51-71 DAYS,57,5,51,71,DAYS,,Y,,
BBC,BBC-10-042,042,10,153,ARM C,3,ARM C,3,Y,Y,Y,Y,10JAN2007,13APR2007,N,Y,13APR2007,94,,Week 12,12,Target Plaque 2 Erythema Severity Score,TP2ERY,7,,Target Plaque 2,3,3.0,2,2.0,1,50,,72-99 DAYS,85,9,72,99,DAYS,,Y,,
BBC,BBC-10-042,042,10,161,ARM C,3,ARM C,3,Y,Y,Y,Y,10JAN2007,13APR2007,N,Y,02MAY2007,113,,,,Target Plaque 2 Induration (Elevation) Severity Score,TP2IND,8,,Target Plaque 2,3,3.0,2,2.0,1,50,,,,,,,,,,,
BBC,BBC-10-042,042,10,155,ARM C,3,ARM C,3,Y,Y,Y,Y,10JAN2007,13APR2007,N,Y,10JAN2007,1,,Day 1 Baseline,0,Target Plaque 2 Induration (Elevation) Severity Score,TP2IND,8,,Target Plaque 2,2,2.0,2,2.0,,,,,,,,,,Y,Y,,
BBC,BBC-10-042,042,10,156,ARM C,3,ARM C,3,Y,Y,Y,Y,10JAN2007,13APR2007,N,Y,24JAN2007,15,,Week 2,2,Target Plaque 2 Induration (Elevation) Severity Score,TP2IND,8,,Target Plaque 2,2,2.0,2,2.0,0,0,,8-22 DAYS,15,0,8,22,DAYS,,Y,,
BBC,BBC-10-042,042,10,157,ARM C,3,ARM C,3,Y,Y,Y,Y,10JAN2007,13APR2007,N,Y,09FEB2007,31,,Week 4,4,Target Plaque 2 Induration (Elevation) Severity Score,TP2IND,8,,Target Plaque 2,3,3.0,2,2.0,1,50,,23-36 DAYS,29,2,23,36,DAYS,,Y,,
BBC,BBC-10-042,042,10,158,ARM C,3,ARM C,3,Y,Y,Y,Y,10JAN2007,13APR2007,N,Y,23FEB2007,45,,Week 6,6,Target Plaque 2 Induration (Elevation) Severity Score,TP2IND,8,,Target Plaque 2,3,3.0,2,2.0,1,50,,37-50 DAYS,43,2,37,50,DAYS,,Y,,
BBC,BBC-10-042,042,10,159,ARM C,3,ARM C,3,Y,Y,Y,Y,10JAN2007,13APR2007,N,Y,12MAR2007,62,,Week 8,8,Target Plaque 2 Induration (Elevation) Severity Score,TP2IND,8,,Target Plaque 2,3,3.0,2,2.0,1,50,,51-71 DAYS,57,5,51,71,DAYS,,Y,,
BBC,BBC-10-042,042,10,160,ARM C,3,ARM C,3,Y,Y,Y,Y,10JAN2007,13APR2007,N,Y,13APR2007,94,,Week 12,12,Target Plaque 2 Induration (Elevation) Severity Score,TP2IND,8,,Target Plaque 2,3,3.0,2,2.0,1,50,,72-99 DAYS,85,9,72,99,DAYS,,Y,,
BBC,BBC-10-042,042,10,168,ARM C,3,ARM C,3,Y,Y,Y,Y,10JAN2007,13APR2007,N,Y,02MAY2007,113,,,,Target Plaque 2 Scaling Severity Score,TP2SCAL,9,,Target Plaque 2,4,4.0,3,3.0,1,33.3,,,,,,,,,,,
BBC,BBC-10-042,042,10,162,ARM C,3,ARM C,3,Y,Y,Y,Y,10JAN2007,13APR2007,N,Y,10JAN2007,1,,Day 1 Baseline,0,Target Plaque 2 Scaling Severity Score,TP2SCAL,9,,Target Plaque 2,3,3.0,3,3.0,,,,,,,,,,Y,Y,,
BBC,BBC-10-042,042,10,163,ARM C,3,ARM C,3,Y,Y,Y,Y,10JAN2007,13APR2007,N,Y,24JAN2007,15,,Week 2,2,Target Plaque 2 Scaling Severity Score,TP2SCAL,9,,Target Plaque 2,2,2.0,3,3.0,-1,-33.3,,8-22 DAYS,15,0,8,22,DAYS,,Y,,
BBC,BBC-10-042,042,10,164,ARM C,3,ARM C,3,Y,Y,Y,Y,10JAN2007,13APR2007,N,Y,09FEB2007,31,,Week 4,4,Target Plaque 2 Scaling Severity Score,TP2SCAL,9,,Target Plaque 2,3,3.0,3,3.0,0,0,,23-36 DAYS,29,2,23,36,DAYS,,Y,,
BBC,BBC-10-042,042,10,165,ARM C,3,ARM C,3,Y,Y,Y,Y,10JAN2007,13APR2007,N,Y,23FEB2007,45,,Week 6,6,Target Plaque 2 Scaling Severity Score,TP2SCAL,9,,Target Plaque 2,2,2.0,3,3.0,-1,-33.3,,37-50 DAYS,43,2,37,50,DAYS,,Y,,
BBC,BBC-10-042,042,10,166,ARM C,3,ARM C,3,Y,Y,Y,Y,10JAN2007,13APR2007,N,Y,12MAR2007,62,,Week 8,8,Target Plaque 2 Scaling Severity Score,TP2SCAL,9,,Target Plaque 2,4,4.0,3,3.0,1,33.3,,51-71 DAYS,57,5,51,71,DAYS,,Y,,
BBC,BBC-10-042,042,10,167,ARM C,3,ARM C,3,Y,Y,Y,Y,10JAN2007,13APR2007,N,Y,13APR2007,94,,Week 12,12,Target Plaque 2 Scaling Severity Score,TP2SCAL,9,,Target Plaque 2,3,3.0,3,3.0,0,0,,72-99 DAYS,85,9,72,99,DAYS,,Y,,
BBC,BBC-10-042,042,10,147,ARM C,3,ARM C,3,Y,Y,Y,Y,10JAN2007,13APR2007,N,Y,02MAY2007,113,,,,Target Plaque 2 CPSS Score,TP2CPSS,10,,Target Plaque 2,10,10.0,7,7.0,3,42.9,,,,,,,,,,,
BBC,BBC-10-042,042,10,141,ARM C,3,ARM C,3,Y,Y,Y,Y,10JAN2007,13APR2007,N,Y,10JAN2007,1,,Day 1 Baseline,0,Target Plaque 2 CPSS Score,TP2CPSS,10,,Target Plaque 2,7,7.0,7,7.0,,,,,,,,,,Y,Y,,
BBC,BBC-10-042,042,10,142,ARM C,3,ARM C,3,Y,Y,Y,Y,10JAN2007,13APR2007,N,Y,24JAN2007,15,,Week 2,2,Target Plaque 2 CPSS Score,TP2CPSS,10,,Target Plaque 2,6,6.0,7,7.0,-1,-14.3,,8-22 DAYS,15,0,8,22,DAYS,,Y,,
BBC,BBC-10-042,042,10,143,ARM C,3,ARM C,3,Y,Y,Y,Y,10JAN2007,13APR2007,N,Y,09FEB2007,31,,Week 4,4,Target Plaque 2 CPSS Score,TP2CPSS,10,,Target Plaque 2,9,9.0,7,7.0,2,28.6,,23-36 DAYS,29,2,23,36,DAYS,,Y,,
BBC,BBC-10-042,042,10,144,ARM C,3,ARM C,3,Y,Y,Y,Y,10JAN2007,13APR2007,N,Y,23FEB2007,45,,Week 6,6,Target Plaque 2 CPSS Score,TP2CPSS,10,,Target Plaque 2,8,8.0,7,7.0,1,14.3,,37-50 DAYS,43,2,37,50,DAYS,,Y,,
BBC,BBC-10-042,042,10,145,ARM C,3,ARM C,3,Y,Y,Y,Y,10JAN2007,13APR2007,N,Y,12MAR2007,62,,Week 8,8,Target Plaque 2 CPSS Score,TP2CPSS,10,,Target Plaque 2,10,10.0,7,7.0,3,42.9,,51-71 DAYS,57,5,51,71,DAYS,,Y,,
BBC,BBC-10-042,042,10,146,ARM C,3,ARM C,3,Y,Y,Y,Y,10JAN2007,13APR2007,N,Y,13APR2007,94,,Week 12,12,Target Plaque 2 CPSS Score,TP2CPSS,10,,Target Plaque 2,9,9.0,7,7.0,2,28.6,,72-99 DAYS,85,9,72,99,DAYS,,Y,,
BBC,BBC-10-042,042,10,142,ARM C,3,ARM C,3,Y,Y,Y,Y,10JAN2007,13APR2007,N,Y,24JAN2007,15,,Week 2,2,Target Plaque 2 CPSS Best Score During Treatment,TP2BEST,11,DERIVED,Target Plaque 2,-1,-1.0,,,,,,,,,,,,,Y,Improved During Treatment,Y
BBC,BBC-10-042,042,10,,ARM C,3,ARM C,3,Y,Y,Y,Y,10JAN2007,13APR2007,N,Y,02MAY2007,113,,,,Average Erythema Severity Score,AVGERY,13,DERIVED,Average,3,3.0,2,2.0,1,50,,,,,,,,,,,
BBC,BBC-10-042,042,10,,ARM C,3,ARM C,3,Y,Y,Y,Y,10JAN2007,13APR2007,N,Y,10JAN2007,1,,Day 1 Baseline,0,Average Erythema Severity Score,AVGERY,13,DERIVED,Average,2,2.0,2,2.0,,,,,,,,,,Y,Y,,
BBC,BBC-10-042,042,10,,ARM C,3,ARM C,3,Y,Y,Y,Y,10JAN2007,13APR2007,N,Y,24JAN2007,15,,Week 2,2,Average Erythema Severity Score,AVGERY,13,DERIVED,Average,2,2.0,2,2.0,0,0,,8-22 DAYS,15,0,8,22,DAYS,,Y,,
BBC,BBC-10-042,042,10,,ARM C,3,ARM C,3,Y,Y,Y,Y,10JAN2007,13APR2007,N,Y,09FEB2007,31,,Week 4,4,Average Erythema Severity Score,AVGERY,13,DERIVED,Average,3,3.0,2,2.0,1,50,,23-36 DAYS,29,2,23,36,DAYS,,Y,,
BBC,BBC-10-042,042,10,,ARM C,3,ARM C,3,Y,Y,Y,Y,10JAN2007,13APR2007,N,Y,23FEB2007,45,,Week 6,6,Average Erythema Severity Score,AVGERY,13,DERIVED,Average,3,3.0,2,2.0,1,50,,37-50 DAYS,43,2,37,50,DAYS,,Y,,
BBC,BBC-10-042,042,10,,ARM C,3,ARM C,3,Y,Y,Y,Y,10JAN2007,13APR2007,N,Y,12MAR2007,62,,Week 8,8,Average Erythema Severity Score,AVGERY,13,DERIVED,Average,3,3.0,2,2.0,1,50,,51-71 DAYS,57,5,51,71,DAYS,,Y,,
BBC,BBC-10-042,042,10,,ARM C,3,ARM C,3,Y,Y,Y,Y,10JAN2007,13APR2007,N,Y,13APR2007,94,,Week 12,12,Average Erythema Severity Score,AVGERY,13,DERIVED,Average,3,3.0,2,2.0,1,50,,72-99 DAYS,85,9,72,99,DAYS,,Y,,
BBC,BBC-10-042,042,10,,ARM C,3,ARM C,3,Y,Y,Y,Y,10JAN2007,13APR2007,N,Y,02MAY2007,113,,,,Average Induration (Elevation) Severity Score,AVGIND,14,DERIVED,Average,3,3.0,2,2.0,1,50,,,,,,,,,,,
BBC,BBC-10-042,042,10,,ARM C,3,ARM C,3,Y,Y,Y,Y,10JAN2007,13APR2007,N,Y,10JAN2007,1,,Day 1 Baseline,0,Average Induration (Elevation) Severity Score,AVGIND,14,DERIVED,Average,2,2.0,2,2.0,,,,,,,,,,Y,Y,,
BBC,BBC-10-042,042,10,,ARM C,3,ARM C,3,Y,Y,Y,Y,10JAN2007,13APR2007,N,Y,24JAN2007,15,,Week 2,2,Average Induration (Elevation) Severity Score,AVGIND,14,DERIVED,Average,1.5,1.5,2,2.0,-0.5,0,,8-22 DAYS,15,0,8,22,DAYS,,Y,,
BBC,BBC-10-042,042,10,,ARM C,3,ARM C,3,Y,Y,Y,Y,10JAN2007,13APR2007,N,Y,09FEB2007,31,,Week 4,4,Average Induration (Elevation) Severity Score,AVGIND,14,DERIVED,Average,3,3.0,2,2.0,1,50,,23-36 DAYS,29,2,23,36,DAYS,,Y,,
BBC,BBC-10-042,042,10,,ARM C,3,ARM C,3,Y,Y,Y,Y,10JAN2007,13APR2007,N,Y,23FEB2007,45,,Week 6,6,Average Induration (Elevation) Severity Score,AVGIND,14,DERIVED,Average,2.5,2.5,2,2.0,0.5,50,,37-50 DAYS,43,2,37,50,DAYS,,Y,,
BBC,BBC-10-042,042,10,,ARM C,3,ARM C,3,Y,Y,Y,Y,10JAN2007,13APR2007,N,Y,12MAR2007,62,,Week 8,8,Average Induration (Elevation) Severity Score,AVGIND,14,DERIVED,Average,3,3.0,2,2.0,1,50,,51-71 DAYS,57,5,51,71,DAYS,,Y,,
BBC,BBC-10-042,042,10,,ARM C,3,ARM C,3,Y,Y,Y,Y,10JAN2007,13APR2007,N,Y,13APR2007,94,,Week 12,12,Average Induration (Elevation) Severity Score,AVGIND,14,DERIVED,Average,3,3.0,2,2.0,1,50,,72-99 DAYS,85,9,72,99,DAYS,,Y,,
BBC,BBC-10-042,042,10,,ARM C,3,ARM C,3,Y,Y,Y,Y,10JAN2007,13APR2007,N,Y,02MAY2007,113,,,,Average Scaling Severity Score,AVGSCAL,15,DERIVED,Average,4,4.0,3,3.0,1,33.3,,,,,,,,,,,
BBC,BBC-10-042,042,10,,ARM C,3,ARM C,3,Y,Y,Y,Y,10JAN2007,13APR2007,N,Y,10JAN2007,1,,Day 1 Baseline,0,Average Scaling Severity Score,AVGSCAL,15,DERIVED,Average,3,3.0,3,3.0,,,,,,,,,,Y,Y,,
BBC,BBC-10-042,042,10,,ARM C,3,ARM C,3,Y,Y,Y,Y,10JAN2007,13APR2007,N,Y,24JAN2007,15,,Week 2,2,Average Scaling Severity Score,AVGSCAL,15,DERIVED,Average,2,2.0,3,3.0,-1,-33.3,,8-22 DAYS,15,0,8,22,DAYS,,Y,,
BBC,BBC-10-042,042,10,,ARM C,3,ARM C,3,Y,Y,Y,Y,10JAN2007,13APR2007,N,Y,09FEB2007,31,,Week 4,4,Average Scaling Severity Score,AVGSCAL,15,DERIVED,Average,3,3.0,3,3.0,0,0,,23-36 DAYS,29,2,23,36,DAYS,,Y,,
BBC,BBC-10-042,042,10,,ARM C,3,ARM C,3,Y,Y,Y,Y,10JAN2007,13APR2007,N,Y,23FEB2007,45,,Week 6,6,Average Scaling Severity Score,AVGSCAL,15,DERIVED,Average,2,2.0,3,3.0,-1,-33.3,,37-50 DAYS,43,2,37,50,DAYS,,Y,,
BBC,BBC-10-042,042,10,,ARM C,3,ARM C,3,Y,Y,Y,Y,10JAN2007,13APR2007,N,Y,12MAR2007,62,,Week 8,8,Average Scaling Severity Score,AVGSCAL,15,DERIVED,Average,4,4.0,3,3.0,1,33.3,,51-71 DAYS,57,5,51,71,DAYS,,Y,,
BBC,BBC-10-042,042,10,,ARM C,3,ARM C,3,Y,Y,Y,Y,10JAN2007,13APR2007,N,Y,13APR2007,94,,Week 12,12,Average Scaling Severity Score,AVGSCAL,15,DERIVED,Average,2.5,2.5,3,3.0,-0.5,0,,72-99 DAYS,85,9,72,99,DAYS,,Y,,
BBC,BBC-10-042,042,10,,ARM C,3,ARM C,3,Y,Y,Y,Y,10JAN2007,13APR2007,N,Y,02MAY2007,113,,,,Average CPSS Score,AVGCPSS,16,DERIVED,Average,10,10.0,7,7.0,3,42.9,,,,,,,,,,,
BBC,BBC-10-042,042,10,,ARM C,3,ARM C,3,Y,Y,Y,Y,10JAN2007,13APR2007,N,Y,10JAN2007,1,,Day 1 Baseline,0,Average CPSS Score,AVGCPSS,16,DERIVED,Average,7,7.0,7,7.0,,,,,,,,,,Y,Y,,
BBC,BBC-10-042,042,10,,ARM C,3,ARM C,3,Y,Y,Y,Y,10JAN2007,13APR2007,N,Y,24JAN2007,15,,Week 2,2,Average CPSS Score,AVGCPSS,16,DERIVED,Average,5.5,5.5,7,7.0,-1.5,-14.3,,8-22 DAYS,15,0,8,22,DAYS,,Y,,
BBC,BBC-10-042,042,10,,ARM C,3,ARM C,3,Y,Y,Y,Y,10JAN2007,13APR2007,N,Y,09FEB2007,31,,Week 4,4,Average CPSS Score,AVGCPSS,16,DERIVED,Average,9,9.0,7,7.0,2,28.6,,23-36 DAYS,29,2,23,36,DAYS,,Y,,
BBC,BBC-10-042,042,10,,ARM C,3,ARM C,3,Y,Y,Y,Y,10JAN2007,13APR2007,N,Y,23FEB2007,45,,Week 6,6,Average CPSS Score,AVGCPSS,16,DERIVED,Average,7.5,7.5,7,7.0,0.5,14.3,,37-50 DAYS,43,2,37,50,DAYS,,Y,,
BBC,BBC-10-042,042,10,,ARM C,3,ARM C,3,Y,Y,Y,Y,10JAN2007,13APR2007,N,Y,12MAR2007,62,,Week 8,8,Average CPSS Score,AVGCPSS,16,DERIVED,Average,10,10.0,7,7.0,3,42.9,,51-71 DAYS,57,5,51,71,DAYS,,Y,,
BBC,BBC-10-042,042,10,,ARM C,3,ARM C,3,Y,Y,Y,Y,10JAN2007,13APR2007,N,Y,13APR2007,94,,Week 12,12,Average CPSS Score,AVGCPSS,16,DERIVED,Average,8.5,8.5,7,7.0,1.5,28.6,,72-99 DAYS,85,9,72,99,DAYS,,Y,,
BBC,BBC-10-042,042,10,,ARM C,3,ARM C,3,Y,Y,Y,Y,10JAN2007,13APR2007,N,Y,24JAN2007,15,,Week 2,2,Average CPSS Best Score During Treatment,AVGBEST,17,DERIVED,Average,-1.5,-1.5,,0.0,,,,,,,,,,,Y,Improved During Treatment,Y
BBC,BBC-10-043,043,10,119,ARM A,1,ARM A,1,Y,Y,Y,Y,09FEB2007,03MAY2007,N,Y,17MAY2007,98,,,,Target Plaque 1 Erythema Severity Score,TP1ERY,1,,Target Plaque 1,3,3.0,3,3.0,0,0,,,,,,,,,,,
BBC,BBC-10-043,043,10,113,ARM A,1,ARM A,1,Y,Y,Y,Y,09FEB2007,03MAY2007,N,Y,09FEB2007,1,,Day 1 Baseline,0,Target Plaque 1 Erythema Severity Score,TP1ERY,1,,Target Plaque 1,3,3.0,3,3.0,,,,,,,,,,Y,Y,,
BBC,BBC-10-043,043,10,114,ARM A,1,ARM A,1,Y,Y,Y,Y,09FEB2007,03MAY2007,N,Y,23FEB2007,15,,Week 2,2,Target Plaque 1 Erythema Severity Score,TP1ERY,1,,Target Plaque 1,2,2.0,3,3.0,-1,-33.3,,8-22 DAYS,15,0,8,22,DAYS,,Y,,
BBC,BBC-10-043,043,10,115,ARM A,1,ARM A,1,Y,Y,Y,Y,09FEB2007,03MAY2007,N,Y,12MAR2007,32,,Week 4,4,Target Plaque 1 Erythema Severity Score,TP1ERY,1,,Target Plaque 1,3,3.0,3,3.0,0,0,,23-36 DAYS,29,3,23,36,DAYS,,Y,,
BBC,BBC-10-043,043,10,116,ARM A,1,ARM A,1,Y,Y,Y,Y,09FEB2007,03MAY2007,N,Y,23MAR2007,43,,Week 6,6,Target Plaque 1 Erythema Severity Score,TP1ERY,1,,Target Plaque 1,2,2.0,3,3.0,-1,-33.3,,37-50 DAYS,43,0,37,50,DAYS,,Y,,
BBC,BBC-10-043,043,10,117,ARM A,1,ARM A,1,Y,Y,Y,Y,09FEB2007,03MAY2007,N,Y,06APR2007,57,,Week 8,8,Target Plaque 1 Erythema Severity Score,TP1ERY,1,,Target Plaque 1,3,3.0,3,3.0,0,0,,51-71 DAYS,57,0,51,71,DAYS,,Y,,
BBC,BBC-10-043,043,10,118,ARM A,1,ARM A,1,Y,Y,Y,Y,09FEB2007,03MAY2007,N,Y,03MAY2007,84,,Week 12,12,Target Plaque 1 Erythema Severity Score,TP1ERY,1,,Target Plaque 1,1,1.0,3,3.0,-2,-66.7,,72-99 DAYS,85,1,72,99,DAYS,,Y,,
BBC,BBC-10-043,043,10,126,ARM A,1,ARM A,1,Y,Y,Y,Y,09FEB2007,03MAY2007,N,Y,17MAY2007,98,,,,Target Plaque 1 Induration (Elevation) Severity Score,TP1IND,2,,Target Plaque 1,3,3.0,2,2.0,1,50,,,,,,,,,,,
BBC,BBC-10-043,043,10,120,ARM A,1,ARM A,1,Y,Y,Y,Y,09FEB2007,03MAY2007,N,Y,09FEB2007,1,,Day 1 Baseline,0,Target Plaque 1 Induration (Elevation) Severity Score,TP1IND,2,,Target Plaque 1,2,2.0,2,2.0,,,,,,,,,,Y,Y,,
BBC,BBC-10-043,043,10,121,ARM A,1,ARM A,1,Y,Y,Y,Y,09FEB2007,03MAY2007,N,Y,23FEB2007,15,,Week 2,2,Target Plaque 1 Induration (Elevation) Severity Score,TP1IND,2,,Target Plaque 1,2,2.0,2,2.0,0,0,,8-22 DAYS,15,0,8,22,DAYS,,Y,,
BBC,BBC-10-043,043,10,122,ARM A,1,ARM A,1,Y,Y,Y,Y,09FEB2007,03MAY2007,N,Y,12MAR2007,32,,Week 4,4,Target Plaque 1 Induration (Elevation) Severity Score,TP1IND,2,,Target Plaque 1,3,3.0,2,2.0,1,50,,23-36 DAYS,29,3,23,36,DAYS,,Y,,
BBC,BBC-10-043,043,10,123,ARM A,1,ARM A,1,Y,Y,Y,Y,09FEB2007,03MAY2007,N,Y,23MAR2007,43,,Week 6,6,Target Plaque 1 Induration (Elevation) Severity Score,TP1IND,2,,Target Plaque 1,2,2.0,2,2.0,0,0,,37-50 DAYS,43,0,37,50,DAYS,,Y,,
BBC,BBC-10-043,043,10,124,ARM A,1,ARM A,1,Y,Y,Y,Y,09FEB2007,03MAY2007,N,Y,06APR2007,57,,Week 8,8,Target Plaque 1 Induration (Elevation) Severity Score,TP1IND,2,,Target Plaque 1,3,3.0,2,2.0,1,50,,51-71 DAYS,57,0,51,71,DAYS,,Y,,
BBC,BBC-10-043,043,10,125,ARM A,1,ARM A,1,Y,Y,Y,Y,09FEB2007,03MAY2007,N,Y,03MAY2007,84,,Week 12,12,Target Plaque 1 Induration (Elevation) Severity Score,TP1IND,2,,Target Plaque 1,1,1.0,2,2.0,-1,-50,,72-99 DAYS,85,1,72,99,DAYS,,Y,,
BBC,BBC-10-043,043,10,133,ARM A,1,ARM A,1,Y,Y,Y,Y,09FEB2007,03MAY2007,N,Y,17MAY2007,98,,,,Target Plaque 1 Scaling Severity Score,TP1SCAL,3,,Target Plaque 1,3,3.0,4,4.0,-1,-25,,,,,,,,,,,
BBC,BBC-10-043,043,10,127,ARM A,1,ARM A,1,Y,Y,Y,Y,09FEB2007,03MAY2007,N,Y,09FEB2007,1,,Day 1 Baseline,0,Target Plaque 1 Scaling Severity Score,TP1SCAL,3,,Target Plaque 1,4,4.0,4,4.0,,,,,,,,,,Y,Y,,
BBC,BBC-10-043,043,10,128,ARM A,1,ARM A,1,Y,Y,Y,Y,09FEB2007,03MAY2007,N,Y,23FEB2007,15,,Week 2,2,Target Plaque 1 Scaling Severity Score,TP1SCAL,3,,Target Plaque 1,2,2.0,4,4.0,-2,-50,,8-22 DAYS,15,0,8,22,DAYS,,Y,,
BBC,BBC-10-043,043,10,129,ARM A,1,ARM A,1,Y,Y,Y,Y,09FEB2007,03MAY2007,N,Y,12MAR2007,32,,Week 4,4,Target Plaque 1 Scaling Severity Score,TP1SCAL,3,,Target Plaque 1,3,3.0,4,4.0,-1,-25,,23-36 DAYS,29,3,23,36,DAYS,,Y,,
BBC,BBC-10-043,043,10,130,ARM A,1,ARM A,1,Y,Y,Y,Y,09FEB2007,03MAY2007,N,Y,23MAR2007,43,,Week 6,6,Target Plaque 1 Scaling Severity Score,TP1SCAL,3,,Target Plaque 1,3,3.0,4,4.0,-1,-25,,37-50 DAYS,43,0,37,50,DAYS,,Y,,
BBC,BBC-10-043,043,10,131,ARM A,1,ARM A,1,Y,Y,Y,Y,09FEB2007,03MAY2007,N,Y,06APR2007,57,,Week 8,8,Target Plaque 1 Scaling Severity Score,TP1SCAL,3,,Target Plaque 1,3,3.0,4,4.0,-1,-25,,51-71 DAYS,57,0,51,71,DAYS,,Y,,
BBC,BBC-10-043,043,10,132,ARM A,1,ARM A,1,Y,Y,Y,Y,09FEB2007,03MAY2007,N,Y,03MAY2007,84,,Week 12,12,Target Plaque 1 Scaling Severity Score,TP1SCAL,3,,Target Plaque 1,1,1.0,4,4.0,-3,-75,,72-99 DAYS,85,1,72,99,DAYS,,Y,,
BBC,BBC-10-043,043,10,112,ARM A,1,ARM A,1,Y,Y,Y,Y,09FEB2007,03MAY2007,N,Y,17MAY2007,98,,,,Target Plaque 1 CPSS Score,TP1CPSS,4,,Target Plaque 1,9,9.0,9,9.0,0,0,,,,,,,,,,,
BBC,BBC-10-043,043,10,106,ARM A,1,ARM A,1,Y,Y,Y,Y,09FEB2007,03MAY2007,N,Y,09FEB2007,1,,Day 1 Baseline,0,Target Plaque 1 CPSS Score,TP1CPSS,4,,Target Plaque 1,9,9.0,9,9.0,,,,,,,,,,Y,Y,,
BBC,BBC-10-043,043,10,107,ARM A,1,ARM A,1,Y,Y,Y,Y,09FEB2007,03MAY2007,N,Y,23FEB2007,15,,Week 2,2,Target Plaque 1 CPSS Score,TP1CPSS,4,,Target Plaque 1,6,6.0,9,9.0,-3,-33.3,,8-22 DAYS,15,0,8,22,DAYS,,Y,,
BBC,BBC-10-043,043,10,108,ARM A,1,ARM A,1,Y,Y,Y,Y,09FEB2007,03MAY2007,N,Y,12MAR2007,32,,Week 4,4,Target Plaque 1 CPSS Score,TP1CPSS,4,,Target Plaque 1,9,9.0,9,9.0,0,0,,23-36 DAYS,29,3,23,36,DAYS,,Y,,
BBC,BBC-10-043,043,10,109,ARM A,1,ARM A,1,Y,Y,Y,Y,09FEB2007,03MAY2007,N,Y,23MAR2007,43,,Week 6,6,Target Plaque 1 CPSS Score,TP1CPSS,4,,Target Plaque 1,7,7.0,9,9.0,-2,-22.2,,37-50 DAYS,43,0,37,50,DAYS,,Y,,
BBC,BBC-10-043,043,10,110,ARM A,1,ARM A,1,Y,Y,Y,Y,09FEB2007,03MAY2007,N,Y,06APR2007,57,,Week 8,8,Target Plaque 1 CPSS Score,TP1CPSS,4,,Target Plaque 1,9,9.0,9,9.0,0,0,,51-71 DAYS,57,0,51,71,DAYS,,Y,,
BBC,BBC-10-043,043,10,111,ARM A,1,ARM A,1,Y,Y,Y,Y,09FEB2007,03MAY2007,N,Y,03MAY2007,84,,Week 12,12,Target Plaque 1 CPSS Score,TP1CPSS,4,,Target Plaque 1,3,3.0,9,9.0,-6,-66.7,,72-99 DAYS,85,1,72,99,DAYS,,Y,,
BBC,BBC-10-043,043,10,111,ARM A,1,ARM A,1,Y,Y,Y,Y,09FEB2007,03MAY2007,N,Y,03MAY2007,84,,Week 12,12,Target Plaque 1 CPSS Best Score During Treatment,TP1BEST,5,DERIVED,Target Plaque 1,-6,-6.0,,,,,,,,,,,,,Y,Improved During Treatment,Y
BBC,BBC-10-043,043,10,154,ARM A,1,ARM A,1,Y,Y,Y,Y,09FEB2007,03MAY2007,N,Y,17MAY2007,98,,,,Target Plaque 2 Erythema Severity Score,TP2ERY,7,,Target Plaque 2,3,3.0,3,3.0,0,0,,,,,,,,,,,
BBC,BBC-10-043,043,10,148,ARM A,1,ARM A,1,Y,Y,Y,Y,09FEB2007,03MAY2007,N,Y,09FEB2007,1,,Day 1 Baseline,0,Target Plaque 2 Erythema Severity Score,TP2ERY,7,,Target Plaque 2,3,3.0,3,3.0,,,,,,,,,,Y,Y,,
BBC,BBC-10-043,043,10,149,ARM A,1,ARM A,1,Y,Y,Y,Y,09FEB2007,03MAY2007,N,Y,23FEB2007,15,,Week 2,2,Target Plaque 2 Erythema Severity Score,TP2ERY,7,,Target Plaque 2,2,2.0,3,3.0,-1,-33.3,,8-22 DAYS,15,0,8,22,DAYS,,Y,,
BBC,BBC-10-043,043,10,150,ARM A,1,ARM A,1,Y,Y,Y,Y,09FEB2007,03MAY2007,N,Y,12MAR2007,32,,Week 4,4,Target Plaque 2 Erythema Severity Score,TP2ERY,7,,Target Plaque 2,3,3.0,3,3.0,0,0,,23-36 DAYS,29,3,23,36,DAYS,,Y,,
BBC,BBC-10-043,043,10,151,ARM A,1,ARM A,1,Y,Y,Y,Y,09FEB2007,03MAY2007,N,Y,23MAR2007,43,,Week 6,6,Target Plaque 2 Erythema Severity Score,TP2ERY,7,,Target Plaque 2,2,2.0,3,3.0,-1,-33.3,,37-50 DAYS,43,0,37,50,DAYS,,Y,,
BBC,BBC-10-043,043,10,152,ARM A,1,ARM A,1,Y,Y,Y,Y,09FEB2007,03MAY2007,N,Y,06APR2007,57,,Week 8,8,Target Plaque 2 Erythema Severity Score,TP2ERY,7,,Target Plaque 2,3,3.0,3,3.0,0,0,,51-71 DAYS,57,0,51,71,DAYS,,Y,,
BBC,BBC-10-043,043,10,153,ARM A,1,ARM A,1,Y,Y,Y,Y,09FEB2007,03MAY2007,N,Y,03MAY2007,84,,Week 12,12,Target Plaque 2 Erythema Severity Score,TP2ERY,7,,Target Plaque 2,1,1.0,3,3.0,-2,-66.7,,72-99 DAYS,85,1,72,99,DAYS,,Y,,
BBC,BBC-10-043,043,10,161,ARM A,1,ARM A,1,Y,Y,Y,Y,09FEB2007,03MAY2007,N,Y,17MAY2007,98,,,,Target Plaque 2 Induration (Elevation) Severity Score,TP2IND,8,,Target Plaque 2,3,3.0,2,2.0,1,50,,,,,,,,,,,
BBC,BBC-10-043,043,10,155,ARM A,1,ARM A,1,Y,Y,Y,Y,09FEB2007,03MAY2007,N,Y,09FEB2007,1,,Day 1 Baseline,0,Target Plaque 2 Induration (Elevation) Severity Score,TP2IND,8,,Target Plaque 2,2,2.0,2,2.0,,,,,,,,,,Y,Y,,
BBC,BBC-10-043,043,10,156,ARM A,1,ARM A,1,Y,Y,Y,Y,09FEB2007,03MAY2007,N,Y,23FEB2007,15,,Week 2,2,Target Plaque 2 Induration (Elevation) Severity Score,TP2IND,8,,Target Plaque 2,2,2.0,2,2.0,0,0,,8-22 DAYS,15,0,8,22,DAYS,,Y,,
BBC,BBC-10-043,043,10,157,ARM A,1,ARM A,1,Y,Y,Y,Y,09FEB2007,03MAY2007,N,Y,12MAR2007,32,,Week 4,4,Target Plaque 2 Induration (Elevation) Severity Score,TP2IND,8,,Target Plaque 2,3,3.0,2,2.0,1,50,,23-36 DAYS,29,3,23,36,DAYS,,Y,,
BBC,BBC-10-043,043,10,158,ARM A,1,ARM A,1,Y,Y,Y,Y,09FEB2007,03MAY2007,N,Y,23MAR2007,43,,Week 6,6,Target Plaque 2 Induration (Elevation) Severity Score,TP2IND,8,,Target Plaque 2,2,2.0,2,2.0,0,0,,37-50 DAYS,43,0,37,50,DAYS,,Y,,
BBC,BBC-10-043,043,10,159,ARM A,1,ARM A,1,Y,Y,Y,Y,09FEB2007,03MAY2007,N,Y,06APR2007,57,,Week 8,8,Target Plaque 2 Induration (Elevation) Severity Score,TP2IND,8,,Target Plaque 2,3,3.0,2,2.0,1,50,,51-71 DAYS,57,0,51,71,DAYS,,Y,,
BBC,BBC-10-043,043,10,160,ARM A,1,ARM A,1,Y,Y,Y,Y,09FEB2007,03MAY2007,N,Y,03MAY2007,84,,Week 12,12,Target Plaque 2 Induration (Elevation) Severity Score,TP2IND,8,,Target Plaque 2,2,2.0,2,2.0,0,0,,72-99 DAYS,85,1,72,99,DAYS,,Y,,
BBC,BBC-10-043,043,10,168,ARM A,1,ARM A,1,Y,Y,Y,Y,09FEB2007,03MAY2007,N,Y,17MAY2007,98,,,,Target Plaque 2 Scaling Severity Score,TP2SCAL,9,,Target Plaque 2,3,3.0,4,4.0,-1,-25,,,,,,,,,,,
BBC,BBC-10-043,043,10,162,ARM A,1,ARM A,1,Y,Y,Y,Y,09FEB2007,03MAY2007,N,Y,09FEB2007,1,,Day 1 Baseline,0,Target Plaque 2 Scaling Severity Score,TP2SCAL,9,,Target Plaque 2,4,4.0,4,4.0,,,,,,,,,,Y,Y,,
BBC,BBC-10-043,043,10,163,ARM A,1,ARM A,1,Y,Y,Y,Y,09FEB2007,03MAY2007,N,Y,23FEB2007,15,,Week 2,2,Target Plaque 2 Scaling Severity Score,TP2SCAL,9,,Target Plaque 2,2,2.0,4,4.0,-2,-50,,8-22 DAYS,15,0,8,22,DAYS,,Y,,
BBC,BBC-10-043,043,10,164,ARM A,1,ARM A,1,Y,Y,Y,Y,09FEB2007,03MAY2007,N,Y,12MAR2007,32,,Week 4,4,Target Plaque 2 Scaling Severity Score,TP2SCAL,9,,Target Plaque 2,3,3.0,4,4.0,-1,-25,,23-36 DAYS,29,3,23,36,DAYS,,Y,,
BBC,BBC-10-043,043,10,165,ARM A,1,ARM A,1,Y,Y,Y,Y,09FEB2007,03MAY2007,N,Y,23MAR2007,43,,Week 6,6,Target Plaque 2 Scaling Severity Score,TP2SCAL,9,,Target Plaque 2,3,3.0,4,4.0,-1,-25,,37-50 DAYS,43,0,37,50,DAYS,,Y,,
BBC,BBC-10-043,043,10,166,ARM A,1,ARM A,1,Y,Y,Y,Y,09FEB2007,03MAY2007,N,Y,06APR2007,57,,Week 8,8,Target Plaque 2 Scaling Severity Score,TP2SCAL,9,,Target Plaque 2,3,3.0,4,4.0,-1,-25,,51-71 DAYS,57,0,51,71,DAYS,,Y,,
BBC,BBC-10-043,043,10,167,ARM A,1,ARM A,1,Y,Y,Y,Y,09FEB2007,03MAY2007,N,Y,03MAY2007,84,,Week 12,12,Target Plaque 2 Scaling Severity Score,TP2SCAL,9,,Target Plaque 2,2,2.0,4,4.0,-2,-50,,72-99 DAYS,85,1,72,99,DAYS,,Y,,
BBC,BBC-10-043,043,10,147,ARM A,1,ARM A,1,Y,Y,Y,Y,09FEB2007,03MAY2007,N,Y,17MAY2007,98,,,,Target Plaque 2 CPSS Score,TP2CPSS,10,,Target Plaque 2,9,9.0,9,9.0,0,0,,,,,,,,,,,
BBC,BBC-10-043,043,10,141,ARM A,1,ARM A,1,Y,Y,Y,Y,09FEB2007,03MAY2007,N,Y,09FEB2007,1,,Day 1 Baseline,0,Target Plaque 2 CPSS Score,TP2CPSS,10,,Target Plaque 2,9,9.0,9,9.0,,,,,,,,,,Y,Y,,
BBC,BBC-10-043,043,10,142,ARM A,1,ARM A,1,Y,Y,Y,Y,09FEB2007,03MAY2007,N,Y,23FEB2007,15,,Week 2,2,Target Plaque 2 CPSS Score,TP2CPSS,10,,Target Plaque 2,6,6.0,9,9.0,-3,-33.3,,8-22 DAYS,15,0,8,22,DAYS,,Y,,
BBC,BBC-10-043,043,10,143,ARM A,1,ARM A,1,Y,Y,Y,Y,09FEB2007,03MAY2007,N,Y,12MAR2007,32,,Week 4,4,Target Plaque 2 CPSS Score,TP2CPSS,10,,Target Plaque 2,9,9.0,9,9.0,0,0,,23-36 DAYS,29,3,23,36,DAYS,,Y,,
BBC,BBC-10-043,043,10,144,ARM A,1,ARM A,1,Y,Y,Y,Y,09FEB2007,03MAY2007,N,Y,23MAR2007,43,,Week 6,6,Target Plaque 2 CPSS Score,TP2CPSS,10,,Target Plaque 2,7,7.0,9,9.0,-2,-22.2,,37-50 DAYS,43,0,37,50,DAYS,,Y,,
BBC,BBC-10-043,043,10,145,ARM A,1,ARM A,1,Y,Y,Y,Y,09FEB2007,03MAY2007,N,Y,06APR2007,57,,Week 8,8,Target Plaque 2 CPSS Score,TP2CPSS,10,,Target Plaque 2,9,9.0,9,9.0,0,0,,51-71 DAYS,57,0,51,71,DAYS,,Y,,
BBC,BBC-10-043,043,10,146,ARM A,1,ARM A,1,Y,Y,Y,Y,09FEB2007,03MAY2007,N,Y,03MAY2007,84,,Week 12,12,Target Plaque 2 CPSS Score,TP2CPSS,10,,Target Plaque 2,5,5.0,9,9.0,-4,-44.4,,72-99 DAYS,85,1,72,99,DAYS,,Y,,
BBC,BBC-10-043,043,10,146,ARM A,1,ARM A,1,Y,Y,Y,Y,09FEB2007,03MAY2007,N,Y,03MAY2007,84,,Week 12,12,Target Plaque 2 CPSS Best Score During Treatment,TP2BEST,11,DERIVED,Target Plaque 2,-4,-4.0,,,,,,,,,,,,,Y,Improved During Treatment,Y
BBC,BBC-10-043,043,10,,ARM A,1,ARM A,1,Y,Y,Y,Y,09FEB2007,03MAY2007,N,Y,17MAY2007,98,,,,Average Erythema Severity Score,AVGERY,13,DERIVED,Average,3,3.0,3,3.0,0,0,,,,,,,,,,,
BBC,BBC-10-043,043,10,,ARM A,1,ARM A,1,Y,Y,Y,Y,09FEB2007,03MAY2007,N,Y,09FEB2007,1,,Day 1 Baseline,0,Average Erythema Severity Score,AVGERY,13,DERIVED,Average,3,3.0,3,3.0,,,,,,,,,,Y,Y,,
BBC,BBC-10-043,043,10,,ARM A,1,ARM A,1,Y,Y,Y,Y,09FEB2007,03MAY2007,N,Y,23FEB2007,15,,Week 2,2,Average Erythema Severity Score,AVGERY,13,DERIVED,Average,2,2.0,3,3.0,-1,-33.3,,8-22 DAYS,15,0,8,22,DAYS,,Y,,
BBC,BBC-10-043,043,10,,ARM A,1,ARM A,1,Y,Y,Y,Y,09FEB2007,03MAY2007,N,Y,12MAR2007,32,,Week 4,4,Average Erythema Severity Score,AVGERY,13,DERIVED,Average,3,3.0,3,3.0,0,0,,23-36 DAYS,29,3,23,36,DAYS,,Y,,
BBC,BBC-10-043,043,10,,ARM A,1,ARM A,1,Y,Y,Y,Y,09FEB2007,03MAY2007,N,Y,23MAR2007,43,,Week 6,6,Average Erythema Severity Score,AVGERY,13,DERIVED,Average,2,2.0,3,3.0,-1,-33.3,,37-50 DAYS,43,0,37,50,DAYS,,Y,,
BBC,BBC-10-043,043,10,,ARM A,1,ARM A,1,Y,Y,Y,Y,09FEB2007,03MAY2007,N,Y,06APR2007,57,,Week 8,8,Average Erythema Severity Score,AVGERY,13,DERIVED,Average,3,3.0,3,3.0,0,0,,51-71 DAYS,57,0,51,71,DAYS,,Y,,
BBC,BBC-10-043,043,10,,ARM A,1,ARM A,1,Y,Y,Y,Y,09FEB2007,03MAY2007,N,Y,03MAY2007,84,,Week 12,12,Average Erythema Severity Score,AVGERY,13,DERIVED,Average,1,1.0,3,3.0,-2,-66.7,,72-99 DAYS,85,1,72,99,DAYS,,Y,,
BBC,BBC-10-043,043,10,,ARM A,1,ARM A,1,Y,Y,Y,Y,09FEB2007,03MAY2007,N,Y,17MAY2007,98,,,,Average Induration (Elevation) Severity Score,AVGIND,14,DERIVED,Average,3,3.0,2,2.0,1,50,,,,,,,,,,,
BBC,BBC-10-043,043,10,,ARM A,1,ARM A,1,Y,Y,Y,Y,09FEB2007,03MAY2007,N,Y,09FEB2007,1,,Day 1 Baseline,0,Average Induration (Elevation) Severity Score,AVGIND,14,DERIVED,Average,2,2.0,2,2.0,,,,,,,,,,Y,Y,,
BBC,BBC-10-043,043,10,,ARM A,1,ARM A,1,Y,Y,Y,Y,09FEB2007,03MAY2007,N,Y,23FEB2007,15,,Week 2,2,Average Induration (Elevation) Severity Score,AVGIND,14,DERIVED,Average,2,2.0,2,2.0,0,0,,8-22 DAYS,15,0,8,22,DAYS,,Y,,
BBC,BBC-10-043,043,10,,ARM A,1,ARM A,1,Y,Y,Y,Y,09FEB2007,03MAY2007,N,Y,12MAR2007,32,,Week 4,4,Average Induration (Elevation) Severity Score,AVGIND,14,DERIVED,Average,3,3.0,2,2.0,1,50,,23-36 DAYS,29,3,23,36,DAYS,,Y,,
BBC,BBC-10-043,043,10,,ARM A,1,ARM A,1,Y,Y,Y,Y,09FEB2007,03MAY2007,N,Y,23MAR2007,43,,Week 6,6,Average Induration (Elevation) Severity Score,AVGIND,14,DERIVED,Average,2,2.0,2,2.0,0,0,,37-50 DAYS,43,0,37,50,DAYS,,Y,,
BBC,BBC-10-043,043,10,,ARM A,1,ARM A,1,Y,Y,Y,Y,09FEB2007,03MAY2007,N,Y,06APR2007,57,,Week 8,8,Average Induration (Elevation) Severity Score,AVGIND,14,DERIVED,Average,3,3.0,2,2.0,1,50,,51-71 DAYS,57,0,51,71,DAYS,,Y,,
BBC,BBC-10-043,043,10,,ARM A,1,ARM A,1,Y,Y,Y,Y,09FEB2007,03MAY2007,N,Y,03MAY2007,84,,Week 12,12,Average Induration (Elevation) Severity Score,AVGIND,14,DERIVED,Average,1.5,1.5,2,2.0,-0.5,0,,72-99 DAYS,85,1,72,99,DAYS,,Y,,
BBC,BBC-10-043,043,10,,ARM A,1,ARM A,1,Y,Y,Y,Y,09FEB2007,03MAY2007,N,Y,17MAY2007,98,,,,Average Scaling Severity Score,AVGSCAL,15,DERIVED,Average,3,3.0,4,4.0,-1,-25,,,,,,,,,,,
BBC,BBC-10-043,043,10,,ARM A,1,ARM A,1,Y,Y,Y,Y,09FEB2007,03MAY2007,N,Y,09FEB2007,1,,Day 1 Baseline,0,Average Scaling Severity Score,AVGSCAL,15,DERIVED,Average,4,4.0,4,4.0,,,,,,,,,,Y,Y,,
BBC,BBC-10-043,043,10,,ARM A,1,ARM A,1,Y,Y,Y,Y,09FEB2007,03MAY2007,N,Y,23FEB2007,15,,Week 2,2,Average Scaling Severity Score,AVGSCAL,15,DERIVED,Average,2,2.0,4,4.0,-2,-50,,8-22 DAYS,15,0,8,22,DAYS,,Y,,
BBC,BBC-10-043,043,10,,ARM A,1,ARM A,1,Y,Y,Y,Y,09FEB2007,03MAY2007,N,Y,12MAR2007,32,,Week 4,4,Average Scaling Severity Score,AVGSCAL,15,DERIVED,Average,3,3.0,4,4.0,-1,-25,,23-36 DAYS,29,3,23,36,DAYS,,Y,,
BBC,BBC-10-043,043,10,,ARM A,1,ARM A,1,Y,Y,Y,Y,09FEB2007,03MAY2007,N,Y,23MAR2007,43,,Week 6,6,Average Scaling Severity Score,AVGSCAL,15,DERIVED,Average,3,3.0,4,4.0,-1,-25,,37-50 DAYS,43,0,37,50,DAYS,,Y,,
BBC,BBC-10-043,043,10,,ARM A,1,ARM A,1,Y,Y,Y,Y,09FEB2007,03MAY2007,N,Y,06APR2007,57,,Week 8,8,Average Scaling Severity Score,AVGSCAL,15,DERIVED,Average,3,3.0,4,4.0,-1,-25,,51-71 DAYS,57,0,51,71,DAYS,,Y,,
BBC,BBC-10-043,043,10,,ARM A,1,ARM A,1,Y,Y,Y,Y,09FEB2007,03MAY2007,N,Y,03MAY2007,84,,Week 12,12,Average Scaling Severity Score,AVGSCAL,15,DERIVED,Average,1.5,1.5,4,4.0,-2.5,-50,,72-99 DAYS,85,1,72,99,DAYS,,Y,,
BBC,BBC-10-043,043,10,,ARM A,1,ARM A,1,Y,Y,Y,Y,09FEB2007,03MAY2007,N,Y,17MAY2007,98,,,,Average CPSS Score,AVGCPSS,16,DERIVED,Average,9,9.0,9,9.0,0,0,,,,,,,,,,,
BBC,BBC-10-043,043,10,,ARM A,1,ARM A,1,Y,Y,Y,Y,09FEB2007,03MAY2007,N,Y,09FEB2007,1,,Day 1 Baseline,0,Average CPSS Score,AVGCPSS,16,DERIVED,Average,9,9.0,9,9.0,,,,,,,,,,Y,Y,,
BBC,BBC-10-043,043,10,,ARM A,1,ARM A,1,Y,Y,Y,Y,09FEB2007,03MAY2007,N,Y,23FEB2007,15,,Week 2,2,Average CPSS Score,AVGCPSS,16,DERIVED,Average,6,6.0,9,9.0,-3,-33.3,,8-22 DAYS,15,0,8,22,DAYS,,Y,,
BBC,BBC-10-043,043,10,,ARM A,1,ARM A,1,Y,Y,Y,Y,09FEB2007,03MAY2007,N,Y,12MAR2007,32,,Week 4,4,Average CPSS Score,AVGCPSS,16,DERIVED,Average,9,9.0,9,9.0,0,0,,23-36 DAYS,29,3,23,36,DAYS,,Y,,
BBC,BBC-10-043,043,10,,ARM A,1,ARM A,1,Y,Y,Y,Y,09FEB2007,03MAY2007,N,Y,23MAR2007,43,,Week 6,6,Average CPSS Score,AVGCPSS,16,DERIVED,Average,7,7.0,9,9.0,-2,-22.2,,37-50 DAYS,43,0,37,50,DAYS,,Y,,
BBC,BBC-10-043,043,10,,ARM A,1,ARM A,1,Y,Y,Y,Y,09FEB2007,03MAY2007,N,Y,06APR2007,57,,Week 8,8,Average CPSS Score,AVGCPSS,16,DERIVED,Average,9,9.0,9,9.0,0,0,,51-71 DAYS,57,0,51,71,DAYS,,Y,,
BBC,BBC-10-043,043,10,,ARM A,1,ARM A,1,Y,Y,Y,Y,09FEB2007,03MAY2007,N,Y,03MAY2007,84,,Week 12,12,Average CPSS Score,AVGCPSS,16,DERIVED,Average,4,4.0,9,9.0,-5,-44.4,,72-99 DAYS,85,1,72,99,DAYS,,Y,,
BBC,BBC-10-043,043,10,,ARM A,1,ARM A,1,Y,Y,Y,Y,09FEB2007,03MAY2007,N,Y,03MAY2007,84,,Week 12,12,Average CPSS Best Score During Treatment,AVGBEST,17,DERIVED,Average,-5,-5.0,,0.0,,,,,,,,,,,Y,Improved During Treatment,Y
BBC,BBC-10-145,145,10,102,ARM A,1,ARM A,1,Y,Y,Y,N,08DEC2006,30MAR2007,N,N,30MAR2007,113,,,,Target Plaque 1 Erythema Severity Score,TP1ERY,1,,Target Plaque 1,1,1.0,2,2.0,-1,-50,,,,,,,,,,,
BBC,BBC-10-145,145,10,97,ARM A,1,ARM A,1,Y,Y,Y,N,08DEC2006,30MAR2007,N,N,08DEC2006,1,,Day 1 Baseline,0,Target Plaque 1 Erythema Severity Score,TP1ERY,1,,Target Plaque 1,2,2.0,2,2.0,,,,,,,,,,Y,Y,,
BBC,BBC-10-145,145,10,98,ARM A,1,ARM A,1,Y,Y,Y,N,08DEC2006,30MAR2007,N,N,20DEC2006,13,,Week 2,2,Target Plaque 1 Erythema Severity Score,TP1ERY,1,,Target Plaque 1,2,2.0,2,2.0,0,0,,8-22 DAYS,15,2,8,22,DAYS,,Y,,
BBC,BBC-10-145,145,10,99,ARM A,1,ARM A,1,Y,Y,Y,N,08DEC2006,30MAR2007,N,N,05JAN2007,29,,Week 4,4,Target Plaque 1 Erythema Severity Score,TP1ERY,1,,Target Plaque 1,1,1.0,2,2.0,-1,-50,,23-36 DAYS,29,0,23,36,DAYS,,Y,,
BBC,BBC-10-145,145,10,100,ARM A,1,ARM A,1,Y,Y,Y,N,08DEC2006,30MAR2007,N,N,23JAN2007,47,,Week 6,6,Target Plaque 1 Erythema Severity Score,TP1ERY,1,,Target Plaque 1,1,1.0,2,2.0,-1,-50,,37-50 DAYS,43,4,37,50,DAYS,,Y,,
BBC,BBC-10-145,145,10,101,ARM A,1,ARM A,1,Y,Y,Y,N,08DEC2006,30MAR2007,N,N,16FEB2007,71,,Week 8,8,Target Plaque 1 Erythema Severity Score,TP1ERY,1,,Target Plaque 1,0,0.0,2,2.0,-2,-100,,51-71 DAYS,57,14,51,71,DAYS,,Y,,
BBC,BBC-10-145,145,10,97,ARM A,1,ARM A,1,Y,Y,Y,N,08DEC2006,30MAR2007,N,N,,,,Week 12,12,Target Plaque 1 Erythema Severity Score,TP1ERY,1,,Target Plaque 1,0,0.0,2,2.0,,,LOCF,,,,,,,,Y,,
BBC,BBC-10-145,145,10,108,ARM A,1,ARM A,1,Y,Y,Y,N,08DEC2006,30MAR2007,N,N,30MAR2007,113,,,,Target Plaque 1 Induration (Elevation) Severity Score,TP1IND,2,,Target Plaque 1,0,0.0,2,2.0,-2,-100,,,,,,,,,,,
BBC,BBC-10-145,145,10,103,ARM A,1,ARM A,1,Y,Y,Y,N,08DEC2006,30MAR2007,N,N,08DEC2006,1,,Day 1 Baseline,0,Target Plaque 1 Induration (Elevation) Severity Score,TP1IND,2,,Target Plaque 1,2,2.0,2,2.0,,,,,,,,,,Y,Y,,
BBC,BBC-10-145,145,10,104,ARM A,1,ARM A,1,Y,Y,Y,N,08DEC2006,30MAR2007,N,N,20DEC2006,13,,Week 2,2,Target Plaque 1 Induration (Elevation) Severity Score,TP1IND,2,,Target Plaque 1,2,2.0,2,2.0,0,0,,8-22 DAYS,15,2,8,22,DAYS,,Y,,
BBC,BBC-10-145,145,10,105,ARM A,1,ARM A,1,Y,Y,Y,N,08DEC2006,30MAR2007,N,N,05JAN2007,29,,Week 4,4,Target Plaque 1 Induration (Elevation) Severity Score,TP1IND,2,,Target Plaque 1,2,2.0,2,2.0,0,0,,23-36 DAYS,29,0,23,36,DAYS,,Y,,
BBC,BBC-10-145,145,10,106,ARM A,1,ARM A,1,Y,Y,Y,N,08DEC2006,30MAR2007,N,N,23JAN2007,47,,Week 6,6,Target Plaque 1 Induration (Elevation) Severity Score,TP1IND,2,,Target Plaque 1,0,0.0,2,2.0,-2,-100,,37-50 DAYS,43,4,37,50,DAYS,,Y,,
BBC,BBC-10-145,145,10,107,ARM A,1,ARM A,1,Y,Y,Y,N,08DEC2006,30MAR2007,N,N,16FEB2007,71,,Week 8,8,Target Plaque 1 Induration (Elevation) Severity Score,TP1IND,2,,Target Plaque 1,0,0.0,2,2.0,-2,-100,,51-71 DAYS,57,14,51,71,DAYS,,Y,,
BBC,BBC-10-145,145,10,103,ARM A,1,ARM A,1,Y,Y,Y,N,08DEC2006,30MAR2007,N,N,,,,Week 12,12,Target Plaque 1 Induration (Elevation) Severity Score,TP1IND,2,,Target Plaque 1,0,0.0,2,2.0,,,LOCF,,,,,,,,Y,,
BBC,BBC-10-145,145,10,114,ARM A,1,ARM A,1,Y,Y,Y,N,08DEC2006,30MAR2007,N,N,30MAR2007,113,,,,Target Plaque 1 Scaling Severity Score,TP1SCAL,3,,Target Plaque 1,0,0.0,3,3.0,-3,-100,,,,,,,,,,,
BBC,BBC-10-145,145,10,109,ARM A,1,ARM A,1,Y,Y,Y,N,08DEC2006,30MAR2007,N,N,08DEC2006,1,,Day 1 Baseline,0,Target Plaque 1 Scaling Severity Score,TP1SCAL,3,,Target Plaque 1,3,3.0,3,3.0,,,,,,,,,,Y,Y,,
BBC,BBC-10-145,145,10,110,ARM A,1,ARM A,1,Y,Y,Y,N,08DEC2006,30MAR2007,N,N,20DEC2006,13,,Week 2,2,Target Plaque 1 Scaling Severity Score,TP1SCAL,3,,Target Plaque 1,3,3.0,3,3.0,0,0,,8-22 DAYS,15,2,8,22,DAYS,,Y,,
BBC,BBC-10-145,145,10,111,ARM A,1,ARM A,1,Y,Y,Y,N,08DEC2006,30MAR2007,N,N,05JAN2007,29,,Week 4,4,Target Plaque 1 Scaling Severity Score,TP1SCAL,3,,Target Plaque 1,2,2.0,3,3.0,-1,-33.3,,23-36 DAYS,29,0,23,36,DAYS,,Y,,
BBC,BBC-10-145,145,10,112,ARM A,1,ARM A,1,Y,Y,Y,N,08DEC2006,30MAR2007,N,N,23JAN2007,47,,Week 6,6,Target Plaque 1 Scaling Severity Score,TP1SCAL,3,,Target Plaque 1,1,1.0,3,3.0,-2,-66.7,,37-50 DAYS,43,4,37,50,DAYS,,Y,,
BBC,BBC-10-145,145,10,113,ARM A,1,ARM A,1,Y,Y,Y,N,08DEC2006,30MAR2007,N,N,16FEB2007,71,,Week 8,8,Target Plaque 1 Scaling Severity Score,TP1SCAL,3,,Target Plaque 1,0,0.0,3,3.0,-3,-100,,51-71 DAYS,57,14,51,71,DAYS,,Y,,
BBC,BBC-10-145,145,10,109,ARM A,1,ARM A,1,Y,Y,Y,N,08DEC2006,30MAR2007,N,N,,,,Week 12,12,Target Plaque 1 Scaling Severity Score,TP1SCAL,3,,Target Plaque 1,0,0.0,3,3.0,,,LOCF,,,,,,,,Y,,
BBC,BBC-10-145,145,10,96,ARM A,1,ARM A,1,Y,Y,Y,N,08DEC2006,30MAR2007,N,N,30MAR2007,113,,,,Target Plaque 1 CPSS Score,TP1CPSS,4,,Target Plaque 1,1,1.0,7,7.0,-6,-85.7,,,,,,,,,,,
BBC,BBC-10-145,145,10,91,ARM A,1,ARM A,1,Y,Y,Y,N,08DEC2006,30MAR2007,N,N,08DEC2006,1,,Day 1 Baseline,0,Target Plaque 1 CPSS Score,TP1CPSS,4,,Target Plaque 1,7,7.0,7,7.0,,,,,,,,,,Y,Y,,
BBC,BBC-10-145,145,10,92,ARM A,1,ARM A,1,Y,Y,Y,N,08DEC2006,30MAR2007,N,N,20DEC2006,13,,Week 2,2,Target Plaque 1 CPSS Score,TP1CPSS,4,,Target Plaque 1,7,7.0,7,7.0,0,0,,8-22 DAYS,15,2,8,22,DAYS,,Y,,
BBC,BBC-10-145,145,10,93,ARM A,1,ARM A,1,Y,Y,Y,N,08DEC2006,30MAR2007,N,N,05JAN2007,29,,Week 4,4,Target Plaque 1 CPSS Score,TP1CPSS,4,,Target Plaque 1,5,5.0,7,7.0,-2,-28.6,,23-36 DAYS,29,0,23,36,DAYS,,Y,,
BBC,BBC-10-145,145,10,94,ARM A,1,ARM A,1,Y,Y,Y,N,08DEC2006,30MAR2007,N,N,23JAN2007,47,,Week 6,6,Target Plaque 1 CPSS Score,TP1CPSS,4,,Target Plaque 1,2,2.0,7,7.0,-5,-71.4,,37-50 DAYS,43,4,37,50,DAYS,,Y,,
BBC,BBC-10-145,145,10,95,ARM A,1,ARM A,1,Y,Y,Y,N,08DEC2006,30MAR2007,N,N,16FEB2007,71,,Week 8,8,Target Plaque 1 CPSS Score,TP1CPSS,4,,Target Plaque 1,0,0.0,7,7.0,-7,-100,,51-71 DAYS,57,14,51,71,DAYS,,Y,,
BBC,BBC-10-145,145,10,91,ARM A,1,ARM A,1,Y,Y,Y,N,08DEC2006,30MAR2007,N,N,,,,Week 12,12,Target Plaque 1 CPSS Score,TP1CPSS,4,,Target Plaque 1,0,0.0,7,7.0,,,LOCF,,,,,,,,Y,,
BBC,BBC-10-145,145,10,95,ARM A,1,ARM A,1,Y,Y,Y,N,08DEC2006,30MAR2007,N,N,16FEB2007,71,,Week 8,8,Target Plaque 1 CPSS Best Score During Treatment,TP1BEST,5,DERIVED,Target Plaque 1,-7,-7.0,,,,,,,,,,,,,Y,Improved During Treatment,Y
BBC,BBC-10-145,145,10,132,ARM A,1,ARM A,1,Y,Y,Y,N,08DEC2006,30MAR2007,N,N,30MAR2007,113,,,,Target Plaque 2 Erythema Severity Score,TP2ERY,7,,Target Plaque 2,0,0.0,2,2.0,-2,-100,,,,,,,,,,,
BBC,BBC-10-145,145,10,127,ARM A,1,ARM A,1,Y,Y,Y,N,08DEC2006,30MAR2007,N,N,08DEC2006,1,,Day 1 Baseline,0,Target Plaque 2 Erythema Severity Score,TP2ERY,7,,Target Plaque 2,2,2.0,2,2.0,,,,,,,,,,Y,Y,,
BBC,BBC-10-145,145,10,128,ARM A,1,ARM A,1,Y,Y,Y,N,08DEC2006,30MAR2007,N,N,20DEC2006,13,,Week 2,2,Target Plaque 2 Erythema Severity Score,TP2ERY,7,,Target Plaque 2,2,2.0,2,2.0,0,0,,8-22 DAYS,15,2,8,22,DAYS,,Y,,
BBC,BBC-10-145,145,10,129,ARM A,1,ARM A,1,Y,Y,Y,N,08DEC2006,30MAR2007,N,N,05JAN2007,29,,Week 4,4,Target Plaque 2 Erythema Severity Score,TP2ERY,7,,Target Plaque 2,1,1.0,2,2.0,-1,-50,,23-36 DAYS,29,0,23,36,DAYS,,Y,,
BBC,BBC-10-145,145,10,130,ARM A,1,ARM A,1,Y,Y,Y,N,08DEC2006,30MAR2007,N,N,23JAN2007,47,,Week 6,6,Target Plaque 2 Erythema Severity Score,TP2ERY,7,,Target Plaque 2,0,0.0,2,2.0,-2,-100,,37-50 DAYS,43,4,37,50,DAYS,,Y,,
BBC,BBC-10-145,145,10,131,ARM A,1,ARM A,1,Y,Y,Y,N,08DEC2006,30MAR2007,N,N,16FEB2007,71,,Week 8,8,Target Plaque 2 Erythema Severity Score,TP2ERY,7,,Target Plaque 2,0,0.0,2,2.0,-2,-100,,51-71 DAYS,57,14,51,71,DAYS,,Y,,
BBC,BBC-10-145,145,10,127,ARM A,1,ARM A,1,Y,Y,Y,N,08DEC2006,30MAR2007,N,N,,,,Week 12,12,Target Plaque 2 Erythema Severity Score,TP2ERY,7,,Target Plaque 2,0,0.0,2,2.0,,,LOCF,,,,,,,,Y,,
BBC,BBC-10-145,145,10,138,ARM A,1,ARM A,1,Y,Y,Y,N,08DEC2006,30MAR2007,N,N,30MAR2007,113,,,,Target Plaque 2 Induration (Elevation) Severity Score,TP2IND,8,,Target Plaque 2,0,0.0,2,2.0,-2,-100,,,,,,,,,,,
BBC,BBC-10-145,145,10,133,ARM A,1,ARM A,1,Y,Y,Y,N,08DEC2006,30MAR2007,N,N,08DEC2006,1,,Day 1 Baseline,0,Target Plaque 2 Induration (Elevation) Severity Score,TP2IND,8,,Target Plaque 2,2,2.0,2,2.0,,,,,,,,,,Y,Y,,
BBC,BBC-10-145,145,10,134,ARM A,1,ARM A,1,Y,Y,Y,N,08DEC2006,30MAR2007,N,N,20DEC2006,13,,Week 2,2,Target Plaque 2 Induration (Elevation) Severity Score,TP2IND,8,,Target Plaque 2,2,2.0,2,2.0,0,0,,8-22 DAYS,15,2,8,22,DAYS,,Y,,
BBC,BBC-10-145,145,10,135,ARM A,1,ARM A,1,Y,Y,Y,N,08DEC2006,30MAR2007,N,N,05JAN2007,29,,Week 4,4,Target Plaque 2 Induration (Elevation) Severity Score,TP2IND,8,,Target Plaque 2,1,1.0,2,2.0,-1,-50,,23-36 DAYS,29,0,23,36,DAYS,,Y,,
BBC,BBC-10-145,145,10,136,ARM A,1,ARM A,1,Y,Y,Y,N,08DEC2006,30MAR2007,N,N,23JAN2007,47,,Week 6,6,Target Plaque 2 Induration (Elevation) Severity Score,TP2IND,8,,Target Plaque 2,0,0.0,2,2.0,-2,-100,,37-50 DAYS,43,4,37,50,DAYS,,Y,,
BBC,BBC-10-145,145,10,137,ARM A,1,ARM A,1,Y,Y,Y,N,08DEC2006,30MAR2007,N,N,16FEB2007,71,,Week 8,8,Target Plaque 2 Induration (Elevation) Severity Score,TP2IND,8,,Target Plaque 2,0,0.0,2,2.0,-2,-100,,51-71 DAYS,57,14,51,71,DAYS,,Y,,
BBC,BBC-10-145,145,10,133,ARM A,1,ARM A,1,Y,Y,Y,N,08DEC2006,30MAR2007,N,N,,,,Week 12,12,Target Plaque 2 Induration (Elevation) Severity Score,TP2IND,8,,Target Plaque 2,0,0.0,2,2.0,,,LOCF,,,,,,,,Y,,
BBC,BBC-10-145,145,10,144,ARM A,1,ARM A,1,Y,Y,Y,N,08DEC2006,30MAR2007,N,N,30MAR2007,113,,,,Target Plaque 2 Scaling Severity Score,TP2SCAL,9,,Target Plaque 2,0,0.0,2,2.0,-2,-100,,,,,,,,,,,
BBC,BBC-10-145,145,10,139,ARM A,1,ARM A,1,Y,Y,Y,N,08DEC2006,30MAR2007,N,N,08DEC2006,1,,Day 1 Baseline,0,Target Plaque 2 Scaling Severity Score,TP2SCAL,9,,Target Plaque 2,2,2.0,2,2.0,,,,,,,,,,Y,Y,,
BBC,BBC-10-145,145,10,140,ARM A,1,ARM A,1,Y,Y,Y,N,08DEC2006,30MAR2007,N,N,20DEC2006,13,,Week 2,2,Target Plaque 2 Scaling Severity Score,TP2SCAL,9,,Target Plaque 2,2,2.0,2,2.0,0,0,,8-22 DAYS,15,2,8,22,DAYS,,Y,,
BBC,BBC-10-145,145,10,141,ARM A,1,ARM A,1,Y,Y,Y,N,08DEC2006,30MAR2007,N,N,05JAN2007,29,,Week 4,4,Target Plaque 2 Scaling Severity Score,TP2SCAL,9,,Target Plaque 2,1,1.0,2,2.0,-1,-50,,23-36 DAYS,29,0,23,36,DAYS,,Y,,
BBC,BBC-10-145,145,10,142,ARM A,1,ARM A,1,Y,Y,Y,N,08DEC2006,30MAR2007,N,N,23JAN2007,47,,Week 6,6,Target Plaque 2 Scaling Severity Score,TP2SCAL,9,,Target Plaque 2,0,0.0,2,2.0,-2,-100,,37-50 DAYS,43,4,37,50,DAYS,,Y,,
BBC,BBC-10-145,145,10,143,ARM A,1,ARM A,1,Y,Y,Y,N,08DEC2006,30MAR2007,N,N,16FEB2007,71,,Week 8,8,Target Plaque 2 Scaling Severity Score,TP2SCAL,9,,Target Plaque 2,0,0.0,2,2.0,-2,-100,,51-71 DAYS,57,14,51,71,DAYS,,Y,,
BBC,BBC-10-145,145,10,139,ARM A,1,ARM A,1,Y,Y,Y,N,08DEC2006,30MAR2007,N,N,,,,Week 12,12,Target Plaque 2 Scaling Severity Score,TP2SCAL,9,,Target Plaque 2,0,0.0,2,2.0,,,LOCF,,,,,,,,Y,,
BBC,BBC-10-145,145,10,126,ARM A,1,ARM A,1,Y,Y,Y,N,08DEC2006,30MAR2007,N,N,30MAR2007,113,,,,Target Plaque 2 CPSS Score,TP2CPSS,10,,Target Plaque 2,0,0.0,6,6.0,-6,-100,,,,,,,,,,,
BBC,BBC-10-145,145,10,121,ARM A,1,ARM A,1,Y,Y,Y,N,08DEC2006,30MAR2007,N,N,08DEC2006,1,,Day 1 Baseline,0,Target Plaque 2 CPSS Score,TP2CPSS,10,,Target Plaque 2,6,6.0,6,6.0,,,,,,,,,,Y,Y,,
BBC,BBC-10-145,145,10,122,ARM A,1,ARM A,1,Y,Y,Y,N,08DEC2006,30MAR2007,N,N,20DEC2006,13,,Week 2,2,Target Plaque 2 CPSS Score,TP2CPSS,10,,Target Plaque 2,6,6.0,6,6.0,0,0,,8-22 DAYS,15,2,8,22,DAYS,,Y,,
BBC,BBC-10-145,145,10,123,ARM A,1,ARM A,1,Y,Y,Y,N,08DEC2006,30MAR2007,N,N,05JAN2007,29,,Week 4,4,Target Plaque 2 CPSS Score,TP2CPSS,10,,Target Plaque 2,3,3.0,6,6.0,-3,-50,,23-36 DAYS,29,0,23,36,DAYS,,Y,,
BBC,BBC-10-145,145,10,124,ARM A,1,ARM A,1,Y,Y,Y,N,08DEC2006,30MAR2007,N,N,23JAN2007,47,,Week 6,6,Target Plaque 2 CPSS Score,TP2CPSS,10,,Target Plaque 2,0,0.0,6,6.0,-6,-100,,37-50 DAYS,43,4,37,50,DAYS,,Y,,
BBC,BBC-10-145,145,10,125,ARM A,1,ARM A,1,Y,Y,Y,N,08DEC2006,30MAR2007,N,N,16FEB2007,71,,Week 8,8,Target Plaque 2 CPSS Score,TP2CPSS,10,,Target Plaque 2,0,0.0,6,6.0,-6,-100,,51-71 DAYS,57,14,51,71,DAYS,,Y,,
BBC,BBC-10-145,145,10,121,ARM A,1,ARM A,1,Y,Y,Y,N,08DEC2006,30MAR2007,N,N,,,,Week 12,12,Target Plaque 2 CPSS Score,TP2CPSS,10,,Target Plaque 2,0,0.0,6,6.0,,,LOCF,,,,,,,,Y,,
BBC,BBC-10-145,145,10,124,ARM A,1,ARM A,1,Y,Y,Y,N,08DEC2006,30MAR2007,N,N,23JAN2007,47,,Week 6,6,Target Plaque 2 CPSS Best Score During Treatment,TP2BEST,11,DERIVED,Target Plaque 2,-6,-6.0,,,,,,,,,,,,,Y,Improved During Treatment,Y
BBC,BBC-10-145,145,10,,ARM A,1,ARM A,1,Y,Y,Y,N,08DEC2006,30MAR2007,N,N,30MAR2007,113,,,,Average Erythema Severity Score,AVGERY,13,DERIVED,Average,0.5,0.5,2,2.0,-1.5,-100,,,,,,,,,,,
BBC,BBC-10-145,145,10,,ARM A,1,ARM A,1,Y,Y,Y,N,08DEC2006,30MAR2007,N,N,08DEC2006,1,,Day 1 Baseline,0,Average Erythema Severity Score,AVGERY,13,DERIVED,Average,2,2.0,2,2.0,,,,,,,,,,Y,Y,,
BBC,BBC-10-145,145,10,,ARM A,1,ARM A,1,Y,Y,Y,N,08DEC2006,30MAR2007,N,N,20DEC2006,13,,Week 2,2,Average Erythema Severity Score,AVGERY,13,DERIVED,Average,2,2.0,2,2.0,0,0,,8-22 DAYS,15,2,8,22,DAYS,,Y,,
BBC,BBC-10-145,145,10,,ARM A,1,ARM A,1,Y,Y,Y,N,08DEC2006,30MAR2007,N,N,05JAN2007,29,,Week 4,4,Average Erythema Severity Score,AVGERY,13,DERIVED,Average,1,1.0,2,2.0,-1,-50,,23-36 DAYS,29,0,23,36,DAYS,,Y,,
BBC,BBC-10-145,145,10,,ARM A,1,ARM A,1,Y,Y,Y,N,08DEC2006,30MAR2007,N,N,23JAN2007,47,,Week 6,6,Average Erythema Severity Score,AVGERY,13,DERIVED,Average,0.5,0.5,2,2.0,-1.5,-100,,37-50 DAYS,43,4,37,50,DAYS,,Y,,
BBC,BBC-10-145,145,10,,ARM A,1,ARM A,1,Y,Y,Y,N,08DEC2006,30MAR2007,N,N,16FEB2007,71,,Week 8,8,Average Erythema Severity Score,AVGERY,13,DERIVED,Average,0,0.0,2,2.0,-2,-100,,51-71 DAYS,57,14,51,71,DAYS,,Y,,
BBC,BBC-10-145,145,10,,ARM A,1,ARM A,1,Y,Y,Y,N,08DEC2006,30MAR2007,N,N,,,,Week 12,12,Average Erythema Severity Score,AVGERY,13,DERIVED,Average,0,0.0,2,2.0,,,LOCF,,,,,,,,Y,,
BBC,BBC-10-145,145,10,,ARM A,1,ARM A,1,Y,Y,Y,N,08DEC2006,30MAR2007,N,N,30MAR2007,113,,,,Average Induration (Elevation) Severity Score,AVGIND,14,DERIVED,Average,0,0.0,2,2.0,-2,-100,,,,,,,,,,,
BBC,BBC-10-145,145,10,,ARM A,1,ARM A,1,Y,Y,Y,N,08DEC2006,30MAR2007,N,N,08DEC2006,1,,Day 1 Baseline,0,Average Induration (Elevation) Severity Score,AVGIND,14,DERIVED,Average,2,2.0,2,2.0,,,,,,,,,,Y,Y,,
BBC,BBC-10-145,145,10,,ARM A,1,ARM A,1,Y,Y,Y,N,08DEC2006,30MAR2007,N,N,20DEC2006,13,,Week 2,2,Average Induration (Elevation) Severity Score,AVGIND,14,DERIVED,Average,2,2.0,2,2.0,0,0,,8-22 DAYS,15,2,8,22,DAYS,,Y,,
BBC,BBC-10-145,145,10,,ARM A,1,ARM A,1,Y,Y,Y,N,08DEC2006,30MAR2007,N,N,05JAN2007,29,,Week 4,4,Average Induration (Elevation) Severity Score,AVGIND,14,DERIVED,Average,1.5,1.5,2,2.0,-0.5,-50,,23-36 DAYS,29,0,23,36,DAYS,,Y,,
BBC,BBC-10-145,145,10,,ARM A,1,ARM A,1,Y,Y,Y,N,08DEC2006,30MAR2007,N,N,23JAN2007,47,,Week 6,6,Average Induration (Elevation) Severity Score,AVGIND,14,DERIVED,Average,0,0.0,2,2.0,-2,-100,,37-50 DAYS,43,4,37,50,DAYS,,Y,,
BBC,BBC-10-145,145,10,,ARM A,1,ARM A,1,Y,Y,Y,N,08DEC2006,30MAR2007,N,N,16FEB2007,71,,Week 8,8,Average Induration (Elevation) Severity Score,AVGIND,14,DERIVED,Average,0,0.0,2,2.0,-2,-100,,51-71 DAYS,57,14,51,71,DAYS,,Y,,
BBC,BBC-10-145,145,10,,ARM A,1,ARM A,1,Y,Y,Y,N,08DEC2006,30MAR2007,N,N,,,,Week 12,12,Average Induration (Elevation) Severity Score,AVGIND,14,DERIVED,Average,0,0.0,2,2.0,,,LOCF,,,,,,,,Y,,
BBC,BBC-10-145,145,10,,ARM A,1,ARM A,1,Y,Y,Y,N,08DEC2006,30MAR2007,N,N,30MAR2007,113,,,,Average Scaling Severity Score,AVGSCAL,15,DERIVED,Average,0,0.0,2.5,2.5,-2.5,-100,,,,,,,,,,,
BBC,BBC-10-145,145,10,,ARM A,1,ARM A,1,Y,Y,Y,N,08DEC2006,30MAR2007,N,N,08DEC2006,1,,Day 1 Baseline,0,Average Scaling Severity Score,AVGSCAL,15,DERIVED,Average,2.5,2.5,2.5,2.5,,,,,,,,,,Y,Y,,
BBC,BBC-10-145,145,10,,ARM A,1,ARM A,1,Y,Y,Y,N,08DEC2006,30MAR2007,N,N,20DEC2006,13,,Week 2,2,Average Scaling Severity Score,AVGSCAL,15,DERIVED,Average,2.5,2.5,2.5,2.5,0,0,,8-22 DAYS,15,2,8,22,DAYS,,Y,,
BBC,BBC-10-145,145,10,,ARM A,1,ARM A,1,Y,Y,Y,N,08DEC2006,30MAR2007,N,N,05JAN2007,29,,Week 4,4,Average Scaling Severity Score,AVGSCAL,15,DERIVED,Average,1.5,1.5,2.5,2.5,-1,-50,,23-36 DAYS,29,0,23,36,DAYS,,Y,,
BBC,BBC-10-145,145,10,,ARM A,1,ARM A,1,Y,Y,Y,N,08DEC2006,30MAR2007,N,N,23JAN2007,47,,Week 6,6,Average Scaling Severity Score,AVGSCAL,15,DERIVED,Average,0.5,0.5,2.5,2.5,-2,-100,,37-50 DAYS,43,4,37,50,DAYS,,Y,,
BBC,BBC-10-145,145,10,,ARM A,1,ARM A,1,Y,Y,Y,N,08DEC2006,30MAR2007,N,N,16FEB2007,71,,Week 8,8,Average Scaling Severity Score,AVGSCAL,15,DERIVED,Average,0,0.0,2.5,2.5,-2.5,-100,,51-71 DAYS,57,14,51,71,DAYS,,Y,,
BBC,BBC-10-145,145,10,,ARM A,1,ARM A,1,Y,Y,Y,N,08DEC2006,30MAR2007,N,N,,,,Week 12,12,Average Scaling Severity Score,AVGSCAL,15,DERIVED,Average,0,0.0,2.5,2.5,,,LOCF,,,,,,,,Y,,
BBC,BBC-10-145,145,10,,ARM A,1,ARM A,1,Y,Y,Y,N,08DEC2006,30MAR2007,N,N,30MAR2007,113,,,,Average CPSS Score,AVGCPSS,16,DERIVED,Average,0.5,0.5,6.5,6.5,-6,-100,,,,,,,,,,,
BBC,BBC-10-145,145,10,,ARM A,1,ARM A,1,Y,Y,Y,N,08DEC2006,30MAR2007,N,N,08DEC2006,1,,Day 1 Baseline,0,Average CPSS Score,AVGCPSS,16,DERIVED,Average,6.5,6.5,6.5,6.5,,,,,,,,,,Y,Y,,
BBC,BBC-10-145,145,10,,ARM A,1,ARM A,1,Y,Y,Y,N,08DEC2006,30MAR2007,N,N,20DEC2006,13,,Week 2,2,Average CPSS Score,AVGCPSS,16,DERIVED,Average,6.5,6.5,6.5,6.5,0,0,,8-22 DAYS,15,2,8,22,DAYS,,Y,,
BBC,BBC-10-145,145,10,,ARM A,1,ARM A,1,Y,Y,Y,N,08DEC2006,30MAR2007,N,N,05JAN2007,29,,Week 4,4,Average CPSS Score,AVGCPSS,16,DERIVED,Average,4,4.0,6.5,6.5,-2.5,-50,,23-36 DAYS,29,0,23,36,DAYS,,Y,,
BBC,BBC-10-145,145,10,,ARM A,1,ARM A,1,Y,Y,Y,N,08DEC2006,30MAR2007,N,N,23JAN2007,47,,Week 6,6,Average CPSS Score,AVGCPSS,16,DERIVED,Average,1,1.0,6.5,6.5,-5.5,-100,,37-50 DAYS,43,4,37,50,DAYS,,Y,,
BBC,BBC-10-145,145,10,,ARM A,1,ARM A,1,Y,Y,Y,N,08DEC2006,30MAR2007,N,N,16FEB2007,71,,Week 8,8,Average CPSS Score,AVGCPSS,16,DERIVED,Average,0,0.0,6.5,6.5,-6.5,-100,,51-71 DAYS,57,14,51,71,DAYS,,Y,,
BBC,BBC-10-145,145,10,,ARM A,1,ARM A,1,Y,Y,Y,N,08DEC2006,30MAR2007,N,N,,,,Week 12,12,Average CPSS Score,AVGCPSS,16,DERIVED,Average,0,0.0,6.5,6.5,,,LOCF,,,,,,,,Y,,
BBC,BBC-10-145,145,10,,ARM A,1,ARM A,1,Y,Y,Y,N,08DEC2006,30MAR2007,N,N,23JAN2007,47,,Week 6,6,Average CPSS Best Score During Treatment,AVGBEST,17,DERIVED,Average,-6.5,-6.5,,0.0,,,,,,,,,,,Y,Improved During Treatment,Y
BBC,BBC-10-146,146,10,113,ARM D,4,ARM D,4,Y,Y,Y,Y,11DEC2006,16MAR2007,N,Y,11DEC2006,1,,Day 1 Baseline,0,Target Plaque 1 Erythema Severity Score,TP1ERY,1,,Target Plaque 1,2,2.0,2,2.0,,,,,,,,,,Y,Y,,
BBC,BBC-10-146,146,10,114,ARM D,4,ARM D,4,Y,Y,Y,Y,11DEC2006,16MAR2007,N,Y,29DEC2006,19,,Week 2,2,Target Plaque 1 Erythema Severity Score,TP1ERY,1,,Target Plaque 1,2,2.0,2,2.0,0,0,,8-22 DAYS,15,4,8,22,DAYS,,Y,,
BBC,BBC-10-146,146,10,115,ARM D,4,ARM D,4,Y,Y,Y,Y,11DEC2006,16MAR2007,N,Y,11JAN2007,32,,Week 4,4,Target Plaque 1 Erythema Severity Score,TP1ERY,1,,Target Plaque 1,2,2.0,2,2.0,0,0,,23-36 DAYS,29,3,23,36,DAYS,,Y,,
BBC,BBC-10-146,146,10,116,ARM D,4,ARM D,4,Y,Y,Y,Y,11DEC2006,16MAR2007,N,Y,25JAN2007,46,,Week 6,6,Target Plaque 1 Erythema Severity Score,TP1ERY,1,,Target Plaque 1,1,1.0,2,2.0,-1,-50,,37-50 DAYS,43,3,37,50,DAYS,,Y,,
BBC,BBC-10-146,146,10,117,ARM D,4,ARM D,4,Y,Y,Y,Y,11DEC2006,16MAR2007,N,Y,08FEB2007,60,,Week 8,8,Target Plaque 1 Erythema Severity Score,TP1ERY,1,,Target Plaque 1,1,1.0,2,2.0,-1,-50,,51-71 DAYS,57,3,51,71,DAYS,,Y,,
BBC,BBC-10-146,146,10,118,ARM D,4,ARM D,4,Y,Y,Y,Y,11DEC2006,16MAR2007,N,Y,16MAR2007,96,,Week 12,12,Target Plaque 1 Erythema Severity Score,TP1ERY,1,,Target Plaque 1,1,1.0,2,2.0,-1,-50,,72-99 DAYS,85,11,72,99,DAYS,,Y,,
BBC,BBC-10-146,146,10,119,ARM D,4,ARM D,4,Y,Y,Y,Y,11DEC2006,16MAR2007,N,Y,09APR2007,120,,Week 16,16,Target Plaque 1 Erythema Severity Score,TP1ERY,1,,Target Plaque 1,1,1.0,2,2.0,-1,-50,,22-36 DAYS POST-LAST-DOSE,124,4,117,131,DAYS,,,,
BBC,BBC-10-146,146,10,120,ARM D,4,ARM D,4,Y,Y,Y,Y,11DEC2006,16MAR2007,N,Y,11DEC2006,1,,Day 1 Baseline,0,Target Plaque 1 Induration (Elevation) Severity Score,TP1IND,2,,Target Plaque 1,2,2.0,2,2.0,,,,,,,,,,Y,Y,,
BBC,BBC-10-146,146,10,121,ARM D,4,ARM D,4,Y,Y,Y,Y,11DEC2006,16MAR2007,N,Y,29DEC2006,19,,Week 2,2,Target Plaque 1 Induration (Elevation) Severity Score,TP1IND,2,,Target Plaque 1,2,2.0,2,2.0,0,0,,8-22 DAYS,15,4,8,22,DAYS,,Y,,
BBC,BBC-10-146,146,10,122,ARM D,4,ARM D,4,Y,Y,Y,Y,11DEC2006,16MAR2007,N,Y,11JAN2007,32,,Week 4,4,Target Plaque 1 Induration (Elevation) Severity Score,TP1IND,2,,Target Plaque 1,2,2.0,2,2.0,0,0,,23-36 DAYS,29,3,23,36,DAYS,,Y,,
BBC,BBC-10-146,146,10,123,ARM D,4,ARM D,4,Y,Y,Y,Y,11DEC2006,16MAR2007,N,Y,25JAN2007,46,,Week 6,6,Target Plaque 1 Induration (Elevation) Severity Score,TP1IND,2,,Target Plaque 1,0,0.0,2,2.0,-2,-100,,37-50 DAYS,43,3,37,50,DAYS,,Y,,
BBC,BBC-10-146,146,10,124,ARM D,4,ARM D,4,Y,Y,Y,Y,11DEC2006,16MAR2007,N,Y,08FEB2007,60,,Week 8,8,Target Plaque 1 Induration (Elevation) Severity Score,TP1IND,2,,Target Plaque 1,0,0.0,2,2.0,-2,-100,,51-71 DAYS,57,3,51,71,DAYS,,Y,,
BBC,BBC-10-146,146,10,125,ARM D,4,ARM D,4,Y,Y,Y,Y,11DEC2006,16MAR2007,N,Y,16MAR2007,96,,Week 12,12,Target Plaque 1 Induration (Elevation) Severity Score,TP1IND,2,,Target Plaque 1,1,1.0,2,2.0,-1,-50,,72-99 DAYS,85,11,72,99,DAYS,,Y,,
BBC,BBC-10-146,146,10,126,ARM D,4,ARM D,4,Y,Y,Y,Y,11DEC2006,16MAR2007,N,Y,09APR2007,120,,Week 16,16,Target Plaque 1 Induration (Elevation) Severity Score,TP1IND,2,,Target Plaque 1,1,1.0,2,2.0,-1,-50,,22-36 DAYS POST-LAST-DOSE,124,4,117,131,DAYS,,,,
BBC,BBC-10-146,146,10,127,ARM D,4,ARM D,4,Y,Y,Y,Y,11DEC2006,16MAR2007,N,Y,11DEC2006,1,,Day 1 Baseline,0,Target Plaque 1 Scaling Severity Score,TP1SCAL,3,,Target Plaque 1,2,2.0,2,2.0,,,,,,,,,,Y,Y,,
BBC,BBC-10-146,146,10,128,ARM D,4,ARM D,4,Y,Y,Y,Y,11DEC2006,16MAR2007,N,Y,29DEC2006,19,,Week 2,2,Target Plaque 1 Scaling Severity Score,TP1SCAL,3,,Target Plaque 1,2,2.0,2,2.0,0,0,,8-22 DAYS,15,4,8,22,DAYS,,Y,,
BBC,BBC-10-146,146,10,129,ARM D,4,ARM D,4,Y,Y,Y,Y,11DEC2006,16MAR2007,N,Y,11JAN2007,32,,Week 4,4,Target Plaque 1 Scaling Severity Score,TP1SCAL,3,,Target Plaque 1,2,2.0,2,2.0,0,0,,23-36 DAYS,29,3,23,36,DAYS,,Y,,
BBC,BBC-10-146,146,10,130,ARM D,4,ARM D,4,Y,Y,Y,Y,11DEC2006,16MAR2007,N,Y,25JAN2007,46,,Week 6,6,Target Plaque 1 Scaling Severity Score,TP1SCAL,3,,Target Plaque 1,0,0.0,2,2.0,-2,-100,,37-50 DAYS,43,3,37,50,DAYS,,Y,,
BBC,BBC-10-146,146,10,131,ARM D,4,ARM D,4,Y,Y,Y,Y,11DEC2006,16MAR2007,N,Y,08FEB2007,60,,Week 8,8,Target Plaque 1 Scaling Severity Score,TP1SCAL,3,,Target Plaque 1,1,1.0,2,2.0,-1,-50,,51-71 DAYS,57,3,51,71,DAYS,,Y,,
BBC,BBC-10-146,146,10,132,ARM D,4,ARM D,4,Y,Y,Y,Y,11DEC2006,16MAR2007,N,Y,16MAR2007,96,,Week 12,12,Target Plaque 1 Scaling Severity Score,TP1SCAL,3,,Target Plaque 1,1,1.0,2,2.0,-1,-50,,72-99 DAYS,85,11,72,99,DAYS,,Y,,
BBC,BBC-10-146,146,10,133,ARM D,4,ARM D,4,Y,Y,Y,Y,11DEC2006,16MAR2007,N,Y,09APR2007,120,,Week 16,16,Target Plaque 1 Scaling Severity Score,TP1SCAL,3,,Target Plaque 1,1,1.0,2,2.0,-1,-50,,22-36 DAYS POST-LAST-DOSE,124,4,117,131,DAYS,,,,
BBC,BBC-10-146,146,10,106,ARM D,4,ARM D,4,Y,Y,Y,Y,11DEC2006,16MAR2007,N,Y,11DEC2006,1,,Day 1 Baseline,0,Target Plaque 1 CPSS Score,TP1CPSS,4,,Target Plaque 1,6,6.0,6,6.0,,,,,,,,,,Y,Y,,
BBC,BBC-10-146,146,10,107,ARM D,4,ARM D,4,Y,Y,Y,Y,11DEC2006,16MAR2007,N,Y,29DEC2006,19,,Week 2,2,Target Plaque 1 CPSS Score,TP1CPSS,4,,Target Plaque 1,6,6.0,6,6.0,0,0,,8-22 DAYS,15,4,8,22,DAYS,,Y,,
BBC,BBC-10-146,146,10,108,ARM D,4,ARM D,4,Y,Y,Y,Y,11DEC2006,16MAR2007,N,Y,11JAN2007,32,,Week 4,4,Target Plaque 1 CPSS Score,TP1CPSS,4,,Target Plaque 1,6,6.0,6,6.0,0,0,,23-36 DAYS,29,3,23,36,DAYS,,Y,,
BBC,BBC-10-146,146,10,109,ARM D,4,ARM D,4,Y,Y,Y,Y,11DEC2006,16MAR2007,N,Y,25JAN2007,46,,Week 6,6,Target Plaque 1 CPSS Score,TP1CPSS,4,,Target Plaque 1,1,1.0,6,6.0,-5,-83.3,,37-50 DAYS,43,3,37,50,DAYS,,Y,,
BBC,BBC-10-146,146,10,110,ARM D,4,ARM D,4,Y,Y,Y,Y,11DEC2006,16MAR2007,N,Y,08FEB2007,60,,Week 8,8,Target Plaque 1 CPSS Score,TP1CPSS,4,,Target Plaque 1,2,2.0,6,6.0,-4,-66.7,,51-71 DAYS,57,3,51,71,DAYS,,Y,,
BBC,BBC-10-146,146,10,111,ARM D,4,ARM D,4,Y,Y,Y,Y,11DEC2006,16MAR2007,N,Y,16MAR2007,96,,Week 12,12,Target Plaque 1 CPSS Score,TP1CPSS,4,,Target Plaque 1,3,3.0,6,6.0,-3,-50,,72-99 DAYS,85,11,72,99,DAYS,,Y,,
BBC,BBC-10-146,146,10,112,ARM D,4,ARM D,4,Y,Y,Y,Y,11DEC2006,16MAR2007,N,Y,09APR2007,120,,Week 16,16,Target Plaque 1 CPSS Score,TP1CPSS,4,,Target Plaque 1,3,3.0,6,6.0,-3,-50,,22-36 DAYS POST-LAST-DOSE,124,4,117,131,DAYS,,,,
BBC,BBC-10-146,146,10,109,ARM D,4,ARM D,4,Y,Y,Y,Y,11DEC2006,16MAR2007,N,Y,25JAN2007,46,,Week 6,6,Target Plaque 1 CPSS Best Score During Treatment,TP1BEST,5,DERIVED,Target Plaque 1,-5,-5.0,,,,,,,,,,,,,Y,Improved During Treatment,Y
BBC,BBC-10-146,146,10,112,ARM D,4,ARM D,4,Y,Y,Y,Y,11DEC2006,16MAR2007,N,Y,,,,,,Target Plaque 1 CPSS Relapse at Week 16,TP1RLPS,6,DERIVED,Target Plaque 1,,Y,,,-3,-50,,,,,,,,,,,
BBC,BBC-10-146,146,10,148,ARM D,4,ARM D,4,Y,Y,Y,Y,11DEC2006,16MAR2007,N,Y,11DEC2006,1,,Day 1 Baseline,0,Target Plaque 2 Erythema Severity Score,TP2ERY,7,,Target Plaque 2,3,3.0,3,3.0,,,,,,,,,,Y,Y,,
BBC,BBC-10-146,146,10,149,ARM D,4,ARM D,4,Y,Y,Y,Y,11DEC2006,16MAR2007,N,Y,29DEC2006,19,,Week 2,2,Target Plaque 2 Erythema Severity Score,TP2ERY,7,,Target Plaque 2,3,3.0,3,3.0,0,0,,8-22 DAYS,15,4,8,22,DAYS,,Y,,
BBC,BBC-10-146,146,10,150,ARM D,4,ARM D,4,Y,Y,Y,Y,11DEC2006,16MAR2007,N,Y,11JAN2007,32,,Week 4,4,Target Plaque 2 Erythema Severity Score,TP2ERY,7,,Target Plaque 2,3,3.0,3,3.0,0,0,,23-36 DAYS,29,3,23,36,DAYS,,Y,,
BBC,BBC-10-146,146,10,151,ARM D,4,ARM D,4,Y,Y,Y,Y,11DEC2006,16MAR2007,N,Y,25JAN2007,46,,Week 6,6,Target Plaque 2 Erythema Severity Score,TP2ERY,7,,Target Plaque 2,2,2.0,3,3.0,-1,-33.3,,37-50 DAYS,43,3,37,50,DAYS,,Y,,
BBC,BBC-10-146,146,10,152,ARM D,4,ARM D,4,Y,Y,Y,Y,11DEC2006,16MAR2007,N,Y,08FEB2007,60,,Week 8,8,Target Plaque 2 Erythema Severity Score,TP2ERY,7,,Target Plaque 2,2,2.0,3,3.0,-1,-33.3,,51-71 DAYS,57,3,51,71,DAYS,,Y,,
BBC,BBC-10-146,146,10,153,ARM D,4,ARM D,4,Y,Y,Y,Y,11DEC2006,16MAR2007,N,Y,16MAR2007,96,,Week 12,12,Target Plaque 2 Erythema Severity Score,TP2ERY,7,,Target Plaque 2,2,2.0,3,3.0,-1,-33.3,,72-99 DAYS,85,11,72,99,DAYS,,Y,,
BBC,BBC-10-146,146,10,154,ARM D,4,ARM D,4,Y,Y,Y,Y,11DEC2006,16MAR2007,N,Y,09APR2007,120,,Week 16,16,Target Plaque 2 Erythema Severity Score,TP2ERY,7,,Target Plaque 2,2,2.0,3,3.0,-1,-33.3,,22-36 DAYS POST-LAST-DOSE,124,4,117,131,DAYS,,,,
BBC,BBC-10-146,146,10,155,ARM D,4,ARM D,4,Y,Y,Y,Y,11DEC2006,16MAR2007,N,Y,11DEC2006,1,,Day 1 Baseline,0,Target Plaque 2 Induration (Elevation) Severity Score,TP2IND,8,,Target Plaque 2,3,3.0,3,3.0,,,,,,,,,,Y,Y,,
BBC,BBC-10-146,146,10,156,ARM D,4,ARM D,4,Y,Y,Y,Y,11DEC2006,16MAR2007,N,Y,29DEC2006,19,,Week 2,2,Target Plaque 2 Induration (Elevation) Severity Score,TP2IND,8,,Target Plaque 2,3,3.0,3,3.0,0,0,,8-22 DAYS,15,4,8,22,DAYS,,Y,,
BBC,BBC-10-146,146,10,157,ARM D,4,ARM D,4,Y,Y,Y,Y,11DEC2006,16MAR2007,N,Y,11JAN2007,32,,Week 4,4,Target Plaque 2 Induration (Elevation) Severity Score,TP2IND,8,,Target Plaque 2,3,3.0,3,3.0,0,0,,23-36 DAYS,29,3,23,36,DAYS,,Y,,
BBC,BBC-10-146,146,10,158,ARM D,4,ARM D,4,Y,Y,Y,Y,11DEC2006,16MAR2007,N,Y,25JAN2007,46,,Week 6,6,Target Plaque 2 Induration (Elevation) Severity Score,TP2IND,8,,Target Plaque 2,1,1.0,3,3.0,-2,-66.7,,37-50 DAYS,43,3,37,50,DAYS,,Y,,
BBC,BBC-10-146,146,10,159,ARM D,4,ARM D,4,Y,Y,Y,Y,11DEC2006,16MAR2007,N,Y,08FEB2007,60,,Week 8,8,Target Plaque 2 Induration (Elevation) Severity Score,TP2IND,8,,Target Plaque 2,2,2.0,3,3.0,-1,-33.3,,51-71 DAYS,57,3,51,71,DAYS,,Y,,
BBC,BBC-10-146,146,10,160,ARM D,4,ARM D,4,Y,Y,Y,Y,11DEC2006,16MAR2007,N,Y,16MAR2007,96,,Week 12,12,Target Plaque 2 Induration (Elevation) Severity Score,TP2IND,8,,Target Plaque 2,2,2.0,3,3.0,-1,-33.3,,72-99 DAYS,85,11,72,99,DAYS,,Y,,
BBC,BBC-10-146,146,10,161,ARM D,4,ARM D,4,Y,Y,Y,Y,11DEC2006,16MAR2007,N,Y,09APR2007,120,,Week 16,16,Target Plaque 2 Induration (Elevation) Severity Score,TP2IND,8,,Target Plaque 2,1,1.0,3,3.0,-2,-66.7,,22-36 DAYS POST-LAST-DOSE,124,4,117,131,DAYS,,,,
BBC,BBC-10-146,146,10,162,ARM D,4,ARM D,4,Y,Y,Y,Y,11DEC2006,16MAR2007,N,Y,11DEC2006,1,,Day 1 Baseline,0,Target Plaque 2 Scaling Severity Score,TP2SCAL,9,,Target Plaque 2,3,3.0,3,3.0,,,,,,,,,,Y,Y,,
BBC,BBC-10-146,146,10,163,ARM D,4,ARM D,4,Y,Y,Y,Y,11DEC2006,16MAR2007,N,Y,29DEC2006,19,,Week 2,2,Target Plaque 2 Scaling Severity Score,TP2SCAL,9,,Target Plaque 2,3,3.0,3,3.0,0,0,,8-22 DAYS,15,4,8,22,DAYS,,Y,,
BBC,BBC-10-146,146,10,164,ARM D,4,ARM D,4,Y,Y,Y,Y,11DEC2006,16MAR2007,N,Y,11JAN2007,32,,Week 4,4,Target Plaque 2 Scaling Severity Score,TP2SCAL,9,,Target Plaque 2,3,3.0,3,3.0,0,0,,23-36 DAYS,29,3,23,36,DAYS,,Y,,
BBC,BBC-10-146,146,10,165,ARM D,4,ARM D,4,Y,Y,Y,Y,11DEC2006,16MAR2007,N,Y,25JAN2007,46,,Week 6,6,Target Plaque 2 Scaling Severity Score,TP2SCAL,9,,Target Plaque 2,3,3.0,3,3.0,0,0,,37-50 DAYS,43,3,37,50,DAYS,,Y,,
BBC,BBC-10-146,146,10,166,ARM D,4,ARM D,4,Y,Y,Y,Y,11DEC2006,16MAR2007,N,Y,08FEB2007,60,,Week 8,8,Target Plaque 2 Scaling Severity Score,TP2SCAL,9,,Target Plaque 2,3,3.0,3,3.0,0,0,,51-71 DAYS,57,3,51,71,DAYS,,Y,,
BBC,BBC-10-146,146,10,167,ARM D,4,ARM D,4,Y,Y,Y,Y,11DEC2006,16MAR2007,N,Y,16MAR2007,96,,Week 12,12,Target Plaque 2 Scaling Severity Score,TP2SCAL,9,,Target Plaque 2,2,2.0,3,3.0,-1,-33.3,,72-99 DAYS,85,11,72,99,DAYS,,Y,,
BBC,BBC-10-146,146,10,168,ARM D,4,ARM D,4,Y,Y,Y,Y,11DEC2006,16MAR2007,N,Y,09APR2007,120,,Week 16,16,Target Plaque 2 Scaling Severity Score,TP2SCAL,9,,Target Plaque 2,2,2.0,3,3.0,-1,-33.3,,22-36 DAYS POST-LAST-DOSE,124,4,117,131,DAYS,,,,
BBC,BBC-10-146,146,10,141,ARM D,4,ARM D,4,Y,Y,Y,Y,11DEC2006,16MAR2007,N,Y,11DEC2006,1,,Day 1 Baseline,0,Target Plaque 2 CPSS Score,TP2CPSS,10,,Target Plaque 2,9,9.0,9,9.0,,,,,,,,,,Y,Y,,
BBC,BBC-10-146,146,10,142,ARM D,4,ARM D,4,Y,Y,Y,Y,11DEC2006,16MAR2007,N,Y,29DEC2006,19,,Week 2,2,Target Plaque 2 CPSS Score,TP2CPSS,10,,Target Plaque 2,9,9.0,9,9.0,0,0,,8-22 DAYS,15,4,8,22,DAYS,,Y,,
BBC,BBC-10-146,146,10,143,ARM D,4,ARM D,4,Y,Y,Y,Y,11DEC2006,16MAR2007,N,Y,11JAN2007,32,,Week 4,4,Target Plaque 2 CPSS Score,TP2CPSS,10,,Target Plaque 2,9,9.0,9,9.0,0,0,,23-36 DAYS,29,3,23,36,DAYS,,Y,,
BBC,BBC-10-146,146,10,144,ARM D,4,ARM D,4,Y,Y,Y,Y,11DEC2006,16MAR2007,N,Y,25JAN2007,46,,Week 6,6,Target Plaque 2 CPSS Score,TP2CPSS,10,,Target Plaque 2,6,6.0,9,9.0,-3,-33.3,,37-50 DAYS,43,3,37,50,DAYS,,Y,,
BBC,BBC-10-146,146,10,145,ARM D,4,ARM D,4,Y,Y,Y,Y,11DEC2006,16MAR2007,N,Y,08FEB2007,60,,Week 8,8,Target Plaque 2 CPSS Score,TP2CPSS,10,,Target Plaque 2,7,7.0,9,9.0,-2,-22.2,,51-71 DAYS,57,3,51,71,DAYS,,Y,,
BBC,BBC-10-146,146,10,146,ARM D,4,ARM D,4,Y,Y,Y,Y,11DEC2006,16MAR2007,N,Y,16MAR2007,96,,Week 12,12,Target Plaque 2 CPSS Score,TP2CPSS,10,,Target Plaque 2,6,6.0,9,9.0,-3,-33.3,,72-99 DAYS,85,11,72,99,DAYS,,Y,,
BBC,BBC-10-146,146,10,147,ARM D,4,ARM D,4,Y,Y,Y,Y,11DEC2006,16MAR2007,N,Y,09APR2007,120,,Week 16,16,Target Plaque 2 CPSS Score,TP2CPSS,10,,Target Plaque 2,5,5.0,9,9.0,-4,-44.4,,22-36 DAYS POST-LAST-DOSE,124,4,117,131,DAYS,,,,
BBC,BBC-10-146,146,10,144,ARM D,4,ARM D,4,Y,Y,Y,Y,11DEC2006,16MAR2007,N,Y,25JAN2007,46,,Week 6,6,Target Plaque 2 CPSS Best Score During Treatment,TP2BEST,11,DERIVED,Target Plaque 2,-3,-3.0,,,,,,,,,,,,,Y,Improved During Treatment,Y
BBC,BBC-10-146,146,10,147,ARM D,4,ARM D,4,Y,Y,Y,Y,11DEC2006,16MAR2007,N,Y,,,,,,Target Plaque 2 CPSS Relapse at Week 16,TP2RLPS,12,DERIVED,Target Plaque 2,,Y,,,-4,-44.4,,,,,,,,,,,
BBC,BBC-10-146,146,10,,ARM D,4,ARM D,4,Y,Y,Y,Y,11DEC2006,16MAR2007,N,Y,11DEC2006,1,,Day 1 Baseline,0,Average Erythema Severity Score,AVGERY,13,DERIVED,Average,2.5,2.5,2.5,2.5,,,,,,,,,,Y,Y,,
BBC,BBC-10-146,146,10,,ARM D,4,ARM D,4,Y,Y,Y,Y,11DEC2006,16MAR2007,N,Y,29DEC2006,19,,Week 2,2,Average Erythema Severity Score,AVGERY,13,DERIVED,Average,2.5,2.5,2.5,2.5,0,0,,8-22 DAYS,15,4,8,22,DAYS,,Y,,
BBC,BBC-10-146,146,10,,ARM D,4,ARM D,4,Y,Y,Y,Y,11DEC2006,16MAR2007,N,Y,11JAN2007,32,,Week 4,4,Average Erythema Severity Score,AVGERY,13,DERIVED,Average,2.5,2.5,2.5,2.5,0,0,,23-36 DAYS,29,3,23,36,DAYS,,Y,,
BBC,BBC-10-146,146,10,,ARM D,4,ARM D,4,Y,Y,Y,Y,11DEC2006,16MAR2007,N,Y,25JAN2007,46,,Week 6,6,Average Erythema Severity Score,AVGERY,13,DERIVED,Average,1.5,1.5,2.5,2.5,-1,-33.3,,37-50 DAYS,43,3,37,50,DAYS,,Y,,
BBC,BBC-10-146,146,10,,ARM D,4,ARM D,4,Y,Y,Y,Y,11DEC2006,16MAR2007,N,Y,08FEB2007,60,,Week 8,8,Average Erythema Severity Score,AVGERY,13,DERIVED,Average,1.5,1.5,2.5,2.5,-1,-33.3,,51-71 DAYS,57,3,51,71,DAYS,,Y,,
BBC,BBC-10-146,146,10,,ARM D,4,ARM D,4,Y,Y,Y,Y,11DEC2006,16MAR2007,N,Y,16MAR2007,96,,Week 12,12,Average Erythema Severity Score,AVGERY,13,DERIVED,Average,1.5,1.5,2.5,2.5,-1,-33.3,,72-99 DAYS,85,11,72,99,DAYS,,Y,,
BBC,BBC-10-146,146,10,,ARM D,4,ARM D,4,Y,Y,Y,Y,11DEC2006,16MAR2007,N,Y,09APR2007,120,,Week 16,16,Average Erythema Severity Score,AVGERY,13,DERIVED,Average,1.5,1.5,2.5,2.5,-1,-33.3,,22-36 DAYS POST-LAST-DOSE,124,4,117,131,DAYS,,,,
BBC,BBC-10-146,146,10,,ARM D,4,ARM D,4,Y,Y,Y,Y,11DEC2006,16MAR2007,N,Y,11DEC2006,1,,Day 1 Baseline,0,Average Induration (Elevation) Severity Score,AVGIND,14,DERIVED,Average,2.5,2.5,2.5,2.5,,,,,,,,,,Y,Y,,
BBC,BBC-10-146,146,10,,ARM D,4,ARM D,4,Y,Y,Y,Y,11DEC2006,16MAR2007,N,Y,29DEC2006,19,,Week 2,2,Average Induration (Elevation) Severity Score,AVGIND,14,DERIVED,Average,2.5,2.5,2.5,2.5,0,0,,8-22 DAYS,15,4,8,22,DAYS,,Y,,
BBC,BBC-10-146,146,10,,ARM D,4,ARM D,4,Y,Y,Y,Y,11DEC2006,16MAR2007,N,Y,11JAN2007,32,,Week 4,4,Average Induration (Elevation) Severity Score,AVGIND,14,DERIVED,Average,2.5,2.5,2.5,2.5,0,0,,23-36 DAYS,29,3,23,36,DAYS,,Y,,
BBC,BBC-10-146,146,10,,ARM D,4,ARM D,4,Y,Y,Y,Y,11DEC2006,16MAR2007,N,Y,25JAN2007,46,,Week 6,6,Average Induration (Elevation) Severity Score,AVGIND,14,DERIVED,Average,0.5,0.5,2.5,2.5,-2,-66.7,,37-50 DAYS,43,3,37,50,DAYS,,Y,,
BBC,BBC-10-146,146,10,,ARM D,4,ARM D,4,Y,Y,Y,Y,11DEC2006,16MAR2007,N,Y,08FEB2007,60,,Week 8,8,Average Induration (Elevation) Severity Score,AVGIND,14,DERIVED,Average,1,1.0,2.5,2.5,-1.5,-33.3,,51-71 DAYS,57,3,51,71,DAYS,,Y,,
BBC,BBC-10-146,146,10,,ARM D,4,ARM D,4,Y,Y,Y,Y,11DEC2006,16MAR2007,N,Y,16MAR2007,96,,Week 12,12,Average Induration (Elevation) Severity Score,AVGIND,14,DERIVED,Average,1.5,1.5,2.5,2.5,-1,-33.3,,72-99 DAYS,85,11,72,99,DAYS,,Y,,
BBC,BBC-10-146,146,10,,ARM D,4,ARM D,4,Y,Y,Y,Y,11DEC2006,16MAR2007,N,Y,09APR2007,120,,Week 16,16,Average Induration (Elevation) Severity Score,AVGIND,14,DERIVED,Average,1,1.0,2.5,2.5,-1.5,-66.7,,22-36 DAYS POST-LAST-DOSE,124,4,117,131,DAYS,,,,
BBC,BBC-10-146,146,10,,ARM D,4,ARM D,4,Y,Y,Y,Y,11DEC2006,16MAR2007,N,Y,11DEC2006,1,,Day 1 Baseline,0,Average Scaling Severity Score,AVGSCAL,15,DERIVED,Average,2.5,2.5,2.5,2.5,,,,,,,,,,Y,Y,,
BBC,BBC-10-146,146,10,,ARM D,4,ARM D,4,Y,Y,Y,Y,11DEC2006,16MAR2007,N,Y,29DEC2006,19,,Week 2,2,Average Scaling Severity Score,AVGSCAL,15,DERIVED,Average,2.5,2.5,2.5,2.5,0,0,,8-22 DAYS,15,4,8,22,DAYS,,Y,,
BBC,BBC-10-146,146,10,,ARM D,4,ARM D,4,Y,Y,Y,Y,11DEC2006,16MAR2007,N,Y,11JAN2007,32,,Week 4,4,Average Scaling Severity Score,AVGSCAL,15,DERIVED,Average,2.5,2.5,2.5,2.5,0,0,,23-36 DAYS,29,3,23,36,DAYS,,Y,,
BBC,BBC-10-146,146,10,,ARM D,4,ARM D,4,Y,Y,Y,Y,11DEC2006,16MAR2007,N,Y,25JAN2007,46,,Week 6,6,Average Scaling Severity Score,AVGSCAL,15,DERIVED,Average,1.5,1.5,2.5,2.5,-1,0,,37-50 DAYS,43,3,37,50,DAYS,,Y,,
BBC,BBC-10-146,146,10,,ARM D,4,ARM D,4,Y,Y,Y,Y,11DEC2006,16MAR2007,N,Y,08FEB2007,60,,Week 8,8,Average Scaling Severity Score,AVGSCAL,15,DERIVED,Average,2,2.0,2.5,2.5,-0.5,0,,51-71 DAYS,57,3,51,71,DAYS,,Y,,
BBC,BBC-10-146,146,10,,ARM D,4,ARM D,4,Y,Y,Y,Y,11DEC2006,16MAR2007,N,Y,16MAR2007,96,,Week 12,12,Average Scaling Severity Score,AVGSCAL,15,DERIVED,Average,1.5,1.5,2.5,2.5,-1,-33.3,,72-99 DAYS,85,11,72,99,DAYS,,Y,,
BBC,BBC-10-146,146,10,,ARM D,4,ARM D,4,Y,Y,Y,Y,11DEC2006,16MAR2007,N,Y,09APR2007,120,,Week 16,16,Average Scaling Severity Score,AVGSCAL,15,DERIVED,Average,1.5,1.5,2.5,2.5,-1,-33.3,,22-36 DAYS POST-LAST-DOSE,124,4,117,131,DAYS,,,,
BBC,BBC-10-146,146,10,,ARM D,4,ARM D,4,Y,Y,Y,Y,11DEC2006,16MAR2007,N,Y,11DEC2006,1,,Day 1 Baseline,0,Average CPSS Score,AVGCPSS,16,DERIVED,Average,7.5,7.5,7.5,7.5,,,,,,,,,,Y,Y,,
BBC,BBC-10-146,146,10,,ARM D,4,ARM D,4,Y,Y,Y,Y,11DEC2006,16MAR2007,N,Y,29DEC2006,19,,Week 2,2,Average CPSS Score,AVGCPSS,16,DERIVED,Average,7.5,7.5,7.5,7.5,0,0,,8-22 DAYS,15,4,8,22,DAYS,,Y,,
BBC,BBC-10-146,146,10,,ARM D,4,ARM D,4,Y,Y,Y,Y,11DEC2006,16MAR2007,N,Y,11JAN2007,32,,Week 4,4,Average CPSS Score,AVGCPSS,16,DERIVED,Average,7.5,7.5,7.5,7.5,0,0,,23-36 DAYS,29,3,23,36,DAYS,,Y,,
BBC,BBC-10-146,146,10,,ARM D,4,ARM D,4,Y,Y,Y,Y,11DEC2006,16MAR2007,N,Y,25JAN2007,46,,Week 6,6,Average CPSS Score,AVGCPSS,16,DERIVED,Average,3.5,3.5,7.5,7.5,-4,-33.3,,37-50 DAYS,43,3,37,50,DAYS,,Y,,
BBC,BBC-10-146,146,10,,ARM D,4,ARM D,4,Y,Y,Y,Y,11DEC2006,16MAR2007,N,Y,08FEB2007,60,,Week 8,8,Average CPSS Score,AVGCPSS,16,DERIVED,Average,4.5,4.5,7.5,7.5,-3,-22.2,,51-71 DAYS,57,3,51,71,DAYS,,Y,,
BBC,BBC-10-146,146,10,,ARM D,4,ARM D,4,Y,Y,Y,Y,11DEC2006,16MAR2007,N,Y,16MAR2007,96,,Week 12,12,Average CPSS Score,AVGCPSS,16,DERIVED,Average,4.5,4.5,7.5,7.5,-3,-33.3,,72-99 DAYS,85,11,72,99,DAYS,,Y,,
BBC,BBC-10-146,146,10,,ARM D,4,ARM D,4,Y,Y,Y,Y,11DEC2006,16MAR2007,N,Y,09APR2007,120,,Week 16,16,Average CPSS Score,AVGCPSS,16,DERIVED,Average,4,4.0,7.5,7.5,-3.5,-44.4,,22-36 DAYS POST-LAST-DOSE,124,4,117,131,DAYS,,,,
BBC,BBC-10-146,146,10,,ARM D,4,ARM D,4,Y,Y,Y,Y,11DEC2006,16MAR2007,N,Y,25JAN2007,46,,Week 6,6,Average CPSS Best Score During Treatment,AVGBEST,17,DERIVED,Average,-4,-4.0,,0.0,,,,,,,,,,,Y,Improved During Treatment,Y
BBC,BBC-10-146,146,10,,ARM D,4,ARM D,4,Y,Y,Y,Y,11DEC2006,16MAR2007,N,Y,,,,,,Average CPSS Relapse at Week 16,AVGRLPS,18,DERIVED,Average,,Y,,0.0,-3.5,-44.4,,,,,,,,,,,
BBC,BBC-10-147,147,10,119,ARM C,3,ARM C,3,Y,Y,Y,Y,12DEC2006,18MAR2007,N,Y,02APR2007,112,,,,Target Plaque 1 Erythema Severity Score,TP1ERY,1,,Target Plaque 1,0,0.0,2,2.0,-2,-100,,,,,,,,,,,
BBC,BBC-10-147,147,10,113,ARM C,3,ARM C,3,Y,Y,Y,Y,12DEC2006,18MAR2007,N,Y,12DEC2006,1,,Day 1 Baseline,0,Target Plaque 1 Erythema Severity Score,TP1ERY,1,,Target Plaque 1,2,2.0,2,2.0,,,,,,,,,,Y,Y,,
BBC,BBC-10-147,147,10,114,ARM C,3,ARM C,3,Y,Y,Y,Y,12DEC2006,18MAR2007,N,Y,28DEC2006,17,,Week 2,2,Target Plaque 1 Erythema Severity Score,TP1ERY,1,,Target Plaque 1,1,1.0,2,2.0,-1,-50,,8-22 DAYS,15,2,8,22,DAYS,,Y,,
BBC,BBC-10-147,147,10,115,ARM C,3,ARM C,3,Y,Y,Y,Y,12DEC2006,18MAR2007,N,Y,15JAN2007,35,,Week 4,4,Target Plaque 1 Erythema Severity Score,TP1ERY,1,,Target Plaque 1,1,1.0,2,2.0,-1,-50,,23-36 DAYS,29,6,23,36,DAYS,,Y,,
BBC,BBC-10-147,147,10,116,ARM C,3,ARM C,3,Y,Y,Y,Y,12DEC2006,18MAR2007,N,Y,25JAN2007,45,,Week 6,6,Target Plaque 1 Erythema Severity Score,TP1ERY,1,,Target Plaque 1,0,0.0,2,2.0,-2,-100,,37-50 DAYS,43,2,37,50,DAYS,,Y,,
BBC,BBC-10-147,147,10,117,ARM C,3,ARM C,3,Y,Y,Y,Y,12DEC2006,18MAR2007,N,Y,12FEB2007,63,,Week 8,8,Target Plaque 1 Erythema Severity Score,TP1ERY,1,,Target Plaque 1,0,0.0,2,2.0,-2,-100,,51-71 DAYS,57,6,51,71,DAYS,,Y,,
BBC,BBC-10-147,147,10,118,ARM C,3,ARM C,3,Y,Y,Y,Y,12DEC2006,18MAR2007,N,Y,19MAR2007,98,,Week 12,12,Target Plaque 1 Erythema Severity Score,TP1ERY,1,,Target Plaque 1,0,0.0,2,2.0,-2,-100,,72-99 DAYS,85,13,72,99,DAYS,,Y,,
BBC,BBC-10-147,147,10,126,ARM C,3,ARM C,3,Y,Y,Y,Y,12DEC2006,18MAR2007,N,Y,02APR2007,112,,,,Target Plaque 1 Induration (Elevation) Severity Score,TP1IND,2,,Target Plaque 1,1,1.0,2,2.0,-1,-50,,,,,,,,,,,
BBC,BBC-10-147,147,10,120,ARM C,3,ARM C,3,Y,Y,Y,Y,12DEC2006,18MAR2007,N,Y,12DEC2006,1,,Day 1 Baseline,0,Target Plaque 1 Induration (Elevation) Severity Score,TP1IND,2,,Target Plaque 1,2,2.0,2,2.0,,,,,,,,,,Y,Y,,
BBC,BBC-10-147,147,10,121,ARM C,3,ARM C,3,Y,Y,Y,Y,12DEC2006,18MAR2007,N,Y,28DEC2006,17,,Week 2,2,Target Plaque 1 Induration (Elevation) Severity Score,TP1IND,2,,Target Plaque 1,2,2.0,2,2.0,0,0,,8-22 DAYS,15,2,8,22,DAYS,,Y,,
BBC,BBC-10-147,147,10,122,ARM C,3,ARM C,3,Y,Y,Y,Y,12DEC2006,18MAR2007,N,Y,15JAN2007,35,,Week 4,4,Target Plaque 1 Induration (Elevation) Severity Score,TP1IND,2,,Target Plaque 1,2,2.0,2,2.0,0,0,,23-36 DAYS,29,6,23,36,DAYS,,Y,,
BBC,BBC-10-147,147,10,123,ARM C,3,ARM C,3,Y,Y,Y,Y,12DEC2006,18MAR2007,N,Y,25JAN2007,45,,Week 6,6,Target Plaque 1 Induration (Elevation) Severity Score,TP1IND,2,,Target Plaque 1,1,1.0,2,2.0,-1,-50,,37-50 DAYS,43,2,37,50,DAYS,,Y,,
BBC,BBC-10-147,147,10,124,ARM C,3,ARM C,3,Y,Y,Y,Y,12DEC2006,18MAR2007,N,Y,12FEB2007,63,,Week 8,8,Target Plaque 1 Induration (Elevation) Severity Score,TP1IND,2,,Target Plaque 1,0,0.0,2,2.0,-2,-100,,51-71 DAYS,57,6,51,71,DAYS,,Y,,
BBC,BBC-10-147,147,10,125,ARM C,3,ARM C,3,Y,Y,Y,Y,12DEC2006,18MAR2007,N,Y,19MAR2007,98,,Week 12,12,Target Plaque 1 Induration (Elevation) Severity Score,TP1IND,2,,Target Plaque 1,0,0.0,2,2.0,-2,-100,,72-99 DAYS,85,13,72,99,DAYS,,Y,,
BBC,BBC-10-147,147,10,133,ARM C,3,ARM C,3,Y,Y,Y,Y,12DEC2006,18MAR2007,N,Y,02APR2007,112,,,,Target Plaque 1 Scaling Severity Score,TP1SCAL,3,,Target Plaque 1,2,2.0,2,2.0,0,0,,,,,,,,,,,
BBC,BBC-10-147,147,10,127,ARM C,3,ARM C,3,Y,Y,Y,Y,12DEC2006,18MAR2007,N,Y,12DEC2006,1,,Day 1 Baseline,0,Target Plaque 1 Scaling Severity Score,TP1SCAL,3,,Target Plaque 1,2,2.0,2,2.0,,,,,,,,,,Y,Y,,
BBC,BBC-10-147,147,10,128,ARM C,3,ARM C,3,Y,Y,Y,Y,12DEC2006,18MAR2007,N,Y,28DEC2006,17,,Week 2,2,Target Plaque 1 Scaling Severity Score,TP1SCAL,3,,Target Plaque 1,2,2.0,2,2.0,0,0,,8-22 DAYS,15,2,8,22,DAYS,,Y,,
BBC,BBC-10-147,147,10,129,ARM C,3,ARM C,3,Y,Y,Y,Y,12DEC2006,18MAR2007,N,Y,15JAN2007,35,,Week 4,4,Target Plaque 1 Scaling Severity Score,TP1SCAL,3,,Target Plaque 1,2,2.0,2,2.0,0,0,,23-36 DAYS,29,6,23,36,DAYS,,Y,,
BBC,BBC-10-147,147,10,130,ARM C,3,ARM C,3,Y,Y,Y,Y,12DEC2006,18MAR2007,N,Y,25JAN2007,45,,Week 6,6,Target Plaque 1 Scaling Severity Score,TP1SCAL,3,,Target Plaque 1,1,1.0,2,2.0,-1,-50,,37-50 DAYS,43,2,37,50,DAYS,,Y,,
BBC,BBC-10-147,147,10,131,ARM C,3,ARM C,3,Y,Y,Y,Y,12DEC2006,18MAR2007,N,Y,12FEB2007,63,,Week 8,8,Target Plaque 1 Scaling Severity Score,TP1SCAL,3,,Target Plaque 1,1,1.0,2,2.0,-1,-50,,51-71 DAYS,57,6,51,71,DAYS,,Y,,
BBC,BBC-10-147,147,10,132,ARM C,3,ARM C,3,Y,Y,Y,Y,12DEC2006,18MAR2007,N,Y,19MAR2007,98,,Week 12,12,Target Plaque 1 Scaling Severity Score,TP1SCAL,3,,Target Plaque 1,0,0.0,2,2.0,-2,-100,,72-99 DAYS,85,13,72,99,DAYS,,Y,,
BBC,BBC-10-147,147,10,112,ARM C,3,ARM C,3,Y,Y,Y,Y,12DEC2006,18MAR2007,N,Y,02APR2007,112,,,,Target Plaque 1 CPSS Score,TP1CPSS,4,,Target Plaque 1,3,3.0,6,6.0,-3,-50,,,,,,,,,,,
BBC,BBC-10-147,147,10,106,ARM C,3,ARM C,3,Y,Y,Y,Y,12DEC2006,18MAR2007,N,Y,12DEC2006,1,,Day 1 Baseline,0,Target Plaque 1 CPSS Score,TP1CPSS,4,,Target Plaque 1,6,6.0,6,6.0,,,,,,,,,,Y,Y,,
BBC,BBC-10-147,147,10,107,ARM C,3,ARM C,3,Y,Y,Y,Y,12DEC2006,18MAR2007,N,Y,28DEC2006,17,,Week 2,2,Target Plaque 1 CPSS Score,TP1CPSS,4,,Target Plaque 1,5,5.0,6,6.0,-1,-16.7,,8-22 DAYS,15,2,8,22,DAYS,,Y,,
BBC,BBC-10-147,147,10,108,ARM C,3,ARM C,3,Y,Y,Y,Y,12DEC2006,18MAR2007,N,Y,15JAN2007,35,,Week 4,4,Target Plaque 1 CPSS Score,TP1CPSS,4,,Target Plaque 1,5,5.0,6,6.0,-1,-16.7,,23-36 DAYS,29,6,23,36,DAYS,,Y,,
BBC,BBC-10-147,147,10,109,ARM C,3,ARM C,3,Y,Y,Y,Y,12DEC2006,18MAR2007,N,Y,25JAN2007,45,,Week 6,6,Target Plaque 1 CPSS Score,TP1CPSS,4,,Target Plaque 1,2,2.0,6,6.0,-4,-66.7,,37-50 DAYS,43,2,37,50,DAYS,,Y,,
BBC,BBC-10-147,147,10,110,ARM C,3,ARM C,3,Y,Y,Y,Y,12DEC2006,18MAR2007,N,Y,12FEB2007,63,,Week 8,8,Target Plaque 1 CPSS Score,TP1CPSS,4,,Target Plaque 1,1,1.0,6,6.0,-5,-83.3,,51-71 DAYS,57,6,51,71,DAYS,,Y,,
BBC,BBC-10-147,147,10,111,ARM C,3,ARM C,3,Y,Y,Y,Y,12DEC2006,18MAR2007,N,Y,19MAR2007,98,,Week 12,12,Target Plaque 1 CPSS Score,TP1CPSS,4,,Target Plaque 1,0,0.0,6,6.0,-6,-100,,72-99 DAYS,85,13,72,99,DAYS,,Y,,
BBC,BBC-10-147,147,10,111,ARM C,3,ARM C,3,Y,Y,Y,Y,12DEC2006,18MAR2007,N,Y,19MAR2007,98,,Week 12,12,Target Plaque 1 CPSS Best Score During Treatment,TP1BEST,5,DERIVED,Target Plaque 1,-6,-6.0,,,,,,,,,,,,,Y,Improved During Treatment,Y
BBC,BBC-10-147,147,10,154,ARM C,3,ARM C,3,Y,Y,Y,Y,12DEC2006,18MAR2007,N,Y,02APR2007,112,,,,Target Plaque 2 Erythema Severity Score,TP2ERY,7,,Target Plaque 2,0,0.0,2,2.0,-2,-100,,,,,,,,,,,
BBC,BBC-10-147,147,10,148,ARM C,3,ARM C,3,Y,Y,Y,Y,12DEC2006,18MAR2007,N,Y,12DEC2006,1,,Day 1 Baseline,0,Target Plaque 2 Erythema Severity Score,TP2ERY,7,,Target Plaque 2,2,2.0,2,2.0,,,,,,,,,,Y,Y,,
BBC,BBC-10-147,147,10,149,ARM C,3,ARM C,3,Y,Y,Y,Y,12DEC2006,18MAR2007,N,Y,28DEC2006,17,,Week 2,2,Target Plaque 2 Erythema Severity Score,TP2ERY,7,,Target Plaque 2,1,1.0,2,2.0,-1,-50,,8-22 DAYS,15,2,8,22,DAYS,,Y,,
BBC,BBC-10-147,147,10,150,ARM C,3,ARM C,3,Y,Y,Y,Y,12DEC2006,18MAR2007,N,Y,15JAN2007,35,,Week 4,4,Target Plaque 2 Erythema Severity Score,TP2ERY,7,,Target Plaque 2,1,1.0,2,2.0,-1,-50,,23-36 DAYS,29,6,23,36,DAYS,,Y,,
BBC,BBC-10-147,147,10,151,ARM C,3,ARM C,3,Y,Y,Y,Y,12DEC2006,18MAR2007,N,Y,25JAN2007,45,,Week 6,6,Target Plaque 2 Erythema Severity Score,TP2ERY,7,,Target Plaque 2,0,0.0,2,2.0,-2,-100,,37-50 DAYS,43,2,37,50,DAYS,,Y,,
BBC,BBC-10-147,147,10,152,ARM C,3,ARM C,3,Y,Y,Y,Y,12DEC2006,18MAR2007,N,Y,12FEB2007,63,,Week 8,8,Target Plaque 2 Erythema Severity Score,TP2ERY,7,,Target Plaque 2,0,0.0,2,2.0,-2,-100,,51-71 DAYS,57,6,51,71,DAYS,,Y,,
BBC,BBC-10-147,147,10,153,ARM C,3,ARM C,3,Y,Y,Y,Y,12DEC2006,18MAR2007,N,Y,19MAR2007,98,,Week 12,12,Target Plaque 2 Erythema Severity Score,TP2ERY,7,,Target Plaque 2,0,0.0,2,2.0,-2,-100,,72-99 DAYS,85,13,72,99,DAYS,,Y,,
BBC,BBC-10-147,147,10,161,ARM C,3,ARM C,3,Y,Y,Y,Y,12DEC2006,18MAR2007,N,Y,02APR2007,112,,,,Target Plaque 2 Induration (Elevation) Severity Score,TP2IND,8,,Target Plaque 2,1,1.0,2,2.0,-1,-50,,,,,,,,,,,
BBC,BBC-10-147,147,10,155,ARM C,3,ARM C,3,Y,Y,Y,Y,12DEC2006,18MAR2007,N,Y,12DEC2006,1,,Day 1 Baseline,0,Target Plaque 2 Induration (Elevation) Severity Score,TP2IND,8,,Target Plaque 2,2,2.0,2,2.0,,,,,,,,,,Y,Y,,
BBC,BBC-10-147,147,10,156,ARM C,3,ARM C,3,Y,Y,Y,Y,12DEC2006,18MAR2007,N,Y,28DEC2006,17,,Week 2,2,Target Plaque 2 Induration (Elevation) Severity Score,TP2IND,8,,Target Plaque 2,2,2.0,2,2.0,0,0,,8-22 DAYS,15,2,8,22,DAYS,,Y,,
BBC,BBC-10-147,147,10,157,ARM C,3,ARM C,3,Y,Y,Y,Y,12DEC2006,18MAR2007,N,Y,15JAN2007,35,,Week 4,4,Target Plaque 2 Induration (Elevation) Severity Score,TP2IND,8,,Target Plaque 2,2,2.0,2,2.0,0,0,,23-36 DAYS,29,6,23,36,DAYS,,Y,,
BBC,BBC-10-147,147,10,158,ARM C,3,ARM C,3,Y,Y,Y,Y,12DEC2006,18MAR2007,N,Y,25JAN2007,45,,Week 6,6,Target Plaque 2 Induration (Elevation) Severity Score,TP2IND,8,,Target Plaque 2,1,1.0,2,2.0,-1,-50,,37-50 DAYS,43,2,37,50,DAYS,,Y,,
BBC,BBC-10-147,147,10,159,ARM C,3,ARM C,3,Y,Y,Y,Y,12DEC2006,18MAR2007,N,Y,12FEB2007,63,,Week 8,8,Target Plaque 2 Induration (Elevation) Severity Score,TP2IND,8,,Target Plaque 2,0,0.0,2,2.0,-2,-100,,51-71 DAYS,57,6,51,71,DAYS,,Y,,
BBC,BBC-10-147,147,10,160,ARM C,3,ARM C,3,Y,Y,Y,Y,12DEC2006,18MAR2007,N,Y,19MAR2007,98,,Week 12,12,Target Plaque 2 Induration (Elevation) Severity Score,TP2IND,8,,Target Plaque 2,0,0.0,2,2.0,-2,-100,,72-99 DAYS,85,13,72,99,DAYS,,Y,,
BBC,BBC-10-147,147,10,168,ARM C,3,ARM C,3,Y,Y,Y,Y,12DEC2006,18MAR2007,N,Y,02APR2007,112,,,,Target Plaque 2 Scaling Severity Score,TP2SCAL,9,,Target Plaque 2,2,2.0,2,2.0,0,0,,,,,,,,,,,
BBC,BBC-10-147,147,10,162,ARM C,3,ARM C,3,Y,Y,Y,Y,12DEC2006,18MAR2007,N,Y,12DEC2006,1,,Day 1 Baseline,0,Target Plaque 2 Scaling Severity Score,TP2SCAL,9,,Target Plaque 2,2,2.0,2,2.0,,,,,,,,,,Y,Y,,
BBC,BBC-10-147,147,10,163,ARM C,3,ARM C,3,Y,Y,Y,Y,12DEC2006,18MAR2007,N,Y,28DEC2006,17,,Week 2,2,Target Plaque 2 Scaling Severity Score,TP2SCAL,9,,Target Plaque 2,2,2.0,2,2.0,0,0,,8-22 DAYS,15,2,8,22,DAYS,,Y,,
BBC,BBC-10-147,147,10,164,ARM C,3,ARM C,3,Y,Y,Y,Y,12DEC2006,18MAR2007,N,Y,15JAN2007,35,,Week 4,4,Target Plaque 2 Scaling Severity Score,TP2SCAL,9,,Target Plaque 2,2,2.0,2,2.0,0,0,,23-36 DAYS,29,6,23,36,DAYS,,Y,,
BBC,BBC-10-147,147,10,165,ARM C,3,ARM C,3,Y,Y,Y,Y,12DEC2006,18MAR2007,N,Y,25JAN2007,45,,Week 6,6,Target Plaque 2 Scaling Severity Score,TP2SCAL,9,,Target Plaque 2,1,1.0,2,2.0,-1,-50,,37-50 DAYS,43,2,37,50,DAYS,,Y,,
BBC,BBC-10-147,147,10,166,ARM C,3,ARM C,3,Y,Y,Y,Y,12DEC2006,18MAR2007,N,Y,12FEB2007,63,,Week 8,8,Target Plaque 2 Scaling Severity Score,TP2SCAL,9,,Target Plaque 2,1,1.0,2,2.0,-1,-50,,51-71 DAYS,57,6,51,71,DAYS,,Y,,
BBC,BBC-10-147,147,10,167,ARM C,3,ARM C,3,Y,Y,Y,Y,12DEC2006,18MAR2007,N,Y,19MAR2007,98,,Week 12,12,Target Plaque 2 Scaling Severity Score,TP2SCAL,9,,Target Plaque 2,1,1.0,2,2.0,-1,-50,,72-99 DAYS,85,13,72,99,DAYS,,Y,,
BBC,BBC-10-147,147,10,147,ARM C,3,ARM C,3,Y,Y,Y,Y,12DEC2006,18MAR2007,N,Y,02APR2007,112,,,,Target Plaque 2 CPSS Score,TP2CPSS,10,,Target Plaque 2,3,3.0,6,6.0,-3,-50,,,,,,,,,,,
BBC,BBC-10-147,147,10,141,ARM C,3,ARM C,3,Y,Y,Y,Y,12DEC2006,18MAR2007,N,Y,12DEC2006,1,,Day 1 Baseline,0,Target Plaque 2 CPSS Score,TP2CPSS,10,,Target Plaque 2,6,6.0,6,6.0,,,,,,,,,,Y,Y,,
BBC,BBC-10-147,147,10,142,ARM C,3,ARM C,3,Y,Y,Y,Y,12DEC2006,18MAR2007,N,Y,28DEC2006,17,,Week 2,2,Target Plaque 2 CPSS Score,TP2CPSS,10,,Target Plaque 2,5,5.0,6,6.0,-1,-16.7,,8-22 DAYS,15,2,8,22,DAYS,,Y,,
BBC,BBC-10-147,147,10,143,ARM C,3,ARM C,3,Y,Y,Y,Y,12DEC2006,18MAR2007,N,Y,15JAN2007,35,,Week 4,4,Target Plaque 2 CPSS Score,TP2CPSS,10,,Target Plaque 2,5,5.0,6,6.0,-1,-16.7,,23-36 DAYS,29,6,23,36,DAYS,,Y,,
BBC,BBC-10-147,147,10,144,ARM C,3,ARM C,3,Y,Y,Y,Y,12DEC2006,18MAR2007,N,Y,25JAN2007,45,,Week 6,6,Target Plaque 2 CPSS Score,TP2CPSS,10,,Target Plaque 2,2,2.0,6,6.0,-4,-66.7,,37-50 DAYS,43,2,37,50,DAYS,,Y,,
BBC,BBC-10-147,147,10,145,ARM C,3,ARM C,3,Y,Y,Y,Y,12DEC2006,18MAR2007,N,Y,12FEB2007,63,,Week 8,8,Target Plaque 2 CPSS Score,TP2CPSS,10,,Target Plaque 2,1,1.0,6,6.0,-5,-83.3,,51-71 DAYS,57,6,51,71,DAYS,,Y,,
BBC,BBC-10-147,147,10,146,ARM C,3,ARM C,3,Y,Y,Y,Y,12DEC2006,18MAR2007,N,Y,19MAR2007,98,,Week 12,12,Target Plaque 2 CPSS Score,TP2CPSS,10,,Target Plaque 2,1,1.0,6,6.0,-5,-83.3,,72-99 DAYS,85,13,72,99,DAYS,,Y,,
BBC,BBC-10-147,147,10,145,ARM C,3,ARM C,3,Y,Y,Y,Y,12DEC2006,18MAR2007,N,Y,12FEB2007,63,,Week 8,8,Target Plaque 2 CPSS Best Score During Treatment,TP2BEST,11,DERIVED,Target Plaque 2,-5,-5.0,,,,,,,,,,,,,Y,Improved During Treatment,Y
BBC,BBC-10-147,147,10,,ARM C,3,ARM C,3,Y,Y,Y,Y,12DEC2006,18MAR2007,N,Y,02APR2007,112,,,,Average Erythema Severity Score,AVGERY,13,DERIVED,Average,0,0.0,2,2.0,-2,-100,,,,,,,,,,,
BBC,BBC-10-147,147,10,,ARM C,3,ARM C,3,Y,Y,Y,Y,12DEC2006,18MAR2007,N,Y,12DEC2006,1,,Day 1 Baseline,0,Average Erythema Severity Score,AVGERY,13,DERIVED,Average,2,2.0,2,2.0,,,,,,,,,,Y,Y,,
BBC,BBC-10-147,147,10,,ARM C,3,ARM C,3,Y,Y,Y,Y,12DEC2006,18MAR2007,N,Y,28DEC2006,17,,Week 2,2,Average Erythema Severity Score,AVGERY,13,DERIVED,Average,1,1.0,2,2.0,-1,-50,,8-22 DAYS,15,2,8,22,DAYS,,Y,,
BBC,BBC-10-147,147,10,,ARM C,3,ARM C,3,Y,Y,Y,Y,12DEC2006,18MAR2007,N,Y,15JAN2007,35,,Week 4,4,Average Erythema Severity Score,AVGERY,13,DERIVED,Average,1,1.0,2,2.0,-1,-50,,23-36 DAYS,29,6,23,36,DAYS,,Y,,
BBC,BBC-10-147,147,10,,ARM C,3,ARM C,3,Y,Y,Y,Y,12DEC2006,18MAR2007,N,Y,25JAN2007,45,,Week 6,6,Average Erythema Severity Score,AVGERY,13,DERIVED,Average,0,0.0,2,2.0,-2,-100,,37-50 DAYS,43,2,37,50,DAYS,,Y,,
BBC,BBC-10-147,147,10,,ARM C,3,ARM C,3,Y,Y,Y,Y,12DEC2006,18MAR2007,N,Y,12FEB2007,63,,Week 8,8,Average Erythema Severity Score,AVGERY,13,DERIVED,Average,0,0.0,2,2.0,-2,-100,,51-71 DAYS,57,6,51,71,DAYS,,Y,,
BBC,BBC-10-147,147,10,,ARM C,3,ARM C,3,Y,Y,Y,Y,12DEC2006,18MAR2007,N,Y,19MAR2007,98,,Week 12,12,Average Erythema Severity Score,AVGERY,13,DERIVED,Average,0,0.0,2,2.0,-2,-100,,72-99 DAYS,85,13,72,99,DAYS,,Y,,
BBC,BBC-10-147,147,10,,ARM C,3,ARM C,3,Y,Y,Y,Y,12DEC2006,18MAR2007,N,Y,02APR2007,112,,,,Average Induration (Elevation) Severity Score,AVGIND,14,DERIVED,Average,1,1.0,2,2.0,-1,-50,,,,,,,,,,,
BBC,BBC-10-147,147,10,,ARM C,3,ARM C,3,Y,Y,Y,Y,12DEC2006,18MAR2007,N,Y,12DEC2006,1,,Day 1 Baseline,0,Average Induration (Elevation) Severity Score,AVGIND,14,DERIVED,Average,2,2.0,2,2.0,,,,,,,,,,Y,Y,,
BBC,BBC-10-147,147,10,,ARM C,3,ARM C,3,Y,Y,Y,Y,12DEC2006,18MAR2007,N,Y,28DEC2006,17,,Week 2,2,Average Induration (Elevation) Severity Score,AVGIND,14,DERIVED,Average,2,2.0,2,2.0,0,0,,8-22 DAYS,15,2,8,22,DAYS,,Y,,
BBC,BBC-10-147,147,10,,ARM C,3,ARM C,3,Y,Y,Y,Y,12DEC2006,18MAR2007,N,Y,15JAN2007,35,,Week 4,4,Average Induration (Elevation) Severity Score,AVGIND,14,DERIVED,Average,2,2.0,2,2.0,0,0,,23-36 DAYS,29,6,23,36,DAYS,,Y,,
BBC,BBC-10-147,147,10,,ARM C,3,ARM C,3,Y,Y,Y,Y,12DEC2006,18MAR2007,N,Y,25JAN2007,45,,Week 6,6,Average Induration (Elevation) Severity Score,AVGIND,14,DERIVED,Average,1,1.0,2,2.0,-1,-50,,37-50 DAYS,43,2,37,50,DAYS,,Y,,
BBC,BBC-10-147,147,10,,ARM C,3,ARM C,3,Y,Y,Y,Y,12DEC2006,18MAR2007,N,Y,12FEB2007,63,,Week 8,8,Average Induration (Elevation) Severity Score,AVGIND,14,DERIVED,Average,0,0.0,2,2.0,-2,-100,,51-71 DAYS,57,6,51,71,DAYS,,Y,,
BBC,BBC-10-147,147,10,,ARM C,3,ARM C,3,Y,Y,Y,Y,12DEC2006,18MAR2007,N,Y,19MAR2007,98,,Week 12,12,Average Induration (Elevation) Severity Score,AVGIND,14,DERIVED,Average,0,0.0,2,2.0,-2,-100,,72-99 DAYS,85,13,72,99,DAYS,,Y,,
BBC,BBC-10-147,147,10,,ARM C,3,ARM C,3,Y,Y,Y,Y,12DEC2006,18MAR2007,N,Y,02APR2007,112,,,,Average Scaling Severity Score,AVGSCAL,15,DERIVED,Average,2,2.0,2,2.0,0,0,,,,,,,,,,,
BBC,BBC-10-147,147,10,,ARM C,3,ARM C,3,Y,Y,Y,Y,12DEC2006,18MAR2007,N,Y,12DEC2006,1,,Day 1 Baseline,0,Average Scaling Severity Score,AVGSCAL,15,DERIVED,Average,2,2.0,2,2.0,,,,,,,,,,Y,Y,,
BBC,BBC-10-147,147,10,,ARM C,3,ARM C,3,Y,Y,Y,Y,12DEC2006,18MAR2007,N,Y,28DEC2006,17,,Week 2,2,Average Scaling Severity Score,AVGSCAL,15,DERIVED,Average,2,2.0,2,2.0,0,0,,8-22 DAYS,15,2,8,22,DAYS,,Y,,
BBC,BBC-10-147,147,10,,ARM C,3,ARM C,3,Y,Y,Y,Y,12DEC2006,18MAR2007,N,Y,15JAN2007,35,,Week 4,4,Average Scaling Severity Score,AVGSCAL,15,DERIVED,Average,2,2.0,2,2.0,0,0,,23-36 DAYS,29,6,23,36,DAYS,,Y,,
BBC,BBC-10-147,147,10,,ARM C,3,ARM C,3,Y,Y,Y,Y,12DEC2006,18MAR2007,N,Y,25JAN2007,45,,Week 6,6,Average Scaling Severity Score,AVGSCAL,15,DERIVED,Average,1,1.0,2,2.0,-1,-50,,37-50 DAYS,43,2,37,50,DAYS,,Y,,
BBC,BBC-10-147,147,10,,ARM C,3,ARM C,3,Y,Y,Y,Y,12DEC2006,18MAR2007,N,Y,12FEB2007,63,,Week 8,8,Average Scaling Severity Score,AVGSCAL,15,DERIVED,Average,1,1.0,2,2.0,-1,-50,,51-71 DAYS,57,6,51,71,DAYS,,Y,,
BBC,BBC-10-147,147,10,,ARM C,3,ARM C,3,Y,Y,Y,Y,12DEC2006,18MAR2007,N,Y,19MAR2007,98,,Week 12,12,Average Scaling Severity Score,AVGSCAL,15,DERIVED,Average,0.5,0.5,2,2.0,-1.5,-50,,72-99 DAYS,85,13,72,99,DAYS,,Y,,
BBC,BBC-10-147,147,10,,ARM C,3,ARM C,3,Y,Y,Y,Y,12DEC2006,18MAR2007,N,Y,02APR2007,112,,,,Average CPSS Score,AVGCPSS,16,DERIVED,Average,3,3.0,6,6.0,-3,-50,,,,,,,,,,,
BBC,BBC-10-147,147,10,,ARM C,3,ARM C,3,Y,Y,Y,Y,12DEC2006,18MAR2007,N,Y,12DEC2006,1,,Day 1 Baseline,0,Average CPSS Score,AVGCPSS,16,DERIVED,Average,6,6.0,6,6.0,,,,,,,,,,Y,Y,,
BBC,BBC-10-147,147,10,,ARM C,3,ARM C,3,Y,Y,Y,Y,12DEC2006,18MAR2007,N,Y,28DEC2006,17,,Week 2,2,Average CPSS Score,AVGCPSS,16,DERIVED,Average,5,5.0,6,6.0,-1,-16.7,,8-22 DAYS,15,2,8,22,DAYS,,Y,,
BBC,BBC-10-147,147,10,,ARM C,3,ARM C,3,Y,Y,Y,Y,12DEC2006,18MAR2007,N,Y,15JAN2007,35,,Week 4,4,Average CPSS Score,AVGCPSS,16,DERIVED,Average,5,5.0,6,6.0,-1,-16.7,,23-36 DAYS,29,6,23,36,DAYS,,Y,,
BBC,BBC-10-147,147,10,,ARM C,3,ARM C,3,Y,Y,Y,Y,12DEC2006,18MAR2007,N,Y,25JAN2007,45,,Week 6,6,Average CPSS Score,AVGCPSS,16,DERIVED,Average,2,2.0,6,6.0,-4,-66.7,,37-50 DAYS,43,2,37,50,DAYS,,Y,,
BBC,BBC-10-147,147,10,,ARM C,3,ARM C,3,Y,Y,Y,Y,12DEC2006,18MAR2007,N,Y,12FEB2007,63,,Week 8,8,Average CPSS Score,AVGCPSS,16,DERIVED,Average,1,1.0,6,6.0,-5,-83.3,,51-71 DAYS,57,6,51,71,DAYS,,Y,,
BBC,BBC-10-147,147,10,,ARM C,3,ARM C,3,Y,Y,Y,Y,12DEC2006,18MAR2007,N,Y,19MAR2007,98,,Week 12,12,Average CPSS Score,AVGCPSS,16,DERIVED,Average,0.5,0.5,6,6.0,-5.5,-83.3,,72-99 DAYS,85,13,72,99,DAYS,,Y,,
BBC,BBC-10-147,147,10,,ARM C,3,ARM C,3,Y,Y,Y,Y,12DEC2006,18MAR2007,N,Y,12FEB2007,63,,Week 8,8,Average CPSS Best Score During Treatment,AVGBEST,17,DERIVED,Average,-5.5,-5.5,,0.0,,,,,,,,,,,Y,Improved During Treatment,Y
BBC,BBC-10-148,148,10,113,ARM B,2,ARM B,2,Y,Y,Y,Y,12DEC2006,07MAR2007,N,Y,12DEC2006,1,,Day 1 Baseline,0,Target Plaque 1 Erythema Severity Score,TP1ERY,1,,Target Plaque 1,2,2.0,2,2.0,,,,,,,,,,Y,Y,,
BBC,BBC-10-148,148,10,114,ARM B,2,ARM B,2,Y,Y,Y,Y,12DEC2006,07MAR2007,N,Y,28DEC2006,17,,Week 2,2,Target Plaque 1 Erythema Severity Score,TP1ERY,1,,Target Plaque 1,2,2.0,2,2.0,0,0,,8-22 DAYS,15,2,8,22,DAYS,,Y,,
BBC,BBC-10-148,148,10,115,ARM B,2,ARM B,2,Y,Y,Y,Y,12DEC2006,07MAR2007,N,Y,11JAN2007,31,,Week 4,4,Target Plaque 1 Erythema Severity Score,TP1ERY,1,,Target Plaque 1,1,1.0,2,2.0,-1,-50,,23-36 DAYS,29,2,23,36,DAYS,,Y,,
BBC,BBC-10-148,148,10,116,ARM B,2,ARM B,2,Y,Y,Y,Y,12DEC2006,07MAR2007,N,Y,25JAN2007,45,,Week 6,6,Target Plaque 1 Erythema Severity Score,TP1ERY,1,,Target Plaque 1,1,1.0,2,2.0,-1,-50,,37-50 DAYS,43,2,37,50,DAYS,,Y,,
BBC,BBC-10-148,148,10,117,ARM B,2,ARM B,2,Y,Y,Y,Y,12DEC2006,07MAR2007,N,Y,08FEB2007,59,,Week 8,8,Target Plaque 1 Erythema Severity Score,TP1ERY,1,,Target Plaque 1,1,1.0,2,2.0,-1,-50,,51-71 DAYS,57,2,51,71,DAYS,,Y,,
BBC,BBC-10-148,148,10,118,ARM B,2,ARM B,2,Y,Y,Y,Y,12DEC2006,07MAR2007,N,Y,15MAR2007,94,,Week 12,12,Target Plaque 1 Erythema Severity Score,TP1ERY,1,,Target Plaque 1,2,2.0,2,2.0,0,0,,72-99 DAYS,85,9,72,99,DAYS,,,,
BBC,BBC-10-148,148,10,119,ARM B,2,ARM B,2,Y,Y,Y,Y,12DEC2006,07MAR2007,N,Y,03APR2007,113,,Week 16,16,Target Plaque 1 Erythema Severity Score,TP1ERY,1,,Target Plaque 1,2,2.0,2,2.0,0,0,,22-36 DAYS POST-LAST-DOSE,114,1,107,121,DAYS,,,,
BBC,BBC-10-148,148,10,120,ARM B,2,ARM B,2,Y,Y,Y,Y,12DEC2006,07MAR2007,N,Y,12DEC2006,1,,Day 1 Baseline,0,Target Plaque 1 Induration (Elevation) Severity Score,TP1IND,2,,Target Plaque 1,2,2.0,2,2.0,,,,,,,,,,Y,Y,,
BBC,BBC-10-148,148,10,121,ARM B,2,ARM B,2,Y,Y,Y,Y,12DEC2006,07MAR2007,N,Y,28DEC2006,17,,Week 2,2,Target Plaque 1 Induration (Elevation) Severity Score,TP1IND,2,,Target Plaque 1,2,2.0,2,2.0,0,0,,8-22 DAYS,15,2,8,22,DAYS,,Y,,
BBC,BBC-10-148,148,10,122,ARM B,2,ARM B,2,Y,Y,Y,Y,12DEC2006,07MAR2007,N,Y,11JAN2007,31,,Week 4,4,Target Plaque 1 Induration (Elevation) Severity Score,TP1IND,2,,Target Plaque 1,1,1.0,2,2.0,-1,-50,,23-36 DAYS,29,2,23,36,DAYS,,Y,,
BBC,BBC-10-148,148,10,123,ARM B,2,ARM B,2,Y,Y,Y,Y,12DEC2006,07MAR2007,N,Y,25JAN2007,45,,Week 6,6,Target Plaque 1 Induration (Elevation) Severity Score,TP1IND,2,,Target Plaque 1,1,1.0,2,2.0,-1,-50,,37-50 DAYS,43,2,37,50,DAYS,,Y,,
BBC,BBC-10-148,148,10,124,ARM B,2,ARM B,2,Y,Y,Y,Y,12DEC2006,07MAR2007,N,Y,08FEB2007,59,,Week 8,8,Target Plaque 1 Induration (Elevation) Severity Score,TP1IND,2,,Target Plaque 1,1,1.0,2,2.0,-1,-50,,51-71 DAYS,57,2,51,71,DAYS,,Y,,
BBC,BBC-10-148,148,10,125,ARM B,2,ARM B,2,Y,Y,Y,Y,12DEC2006,07MAR2007,N,Y,15MAR2007,94,,Week 12,12,Target Plaque 1 Induration (Elevation) Severity Score,TP1IND,2,,Target Plaque 1,1,1.0,2,2.0,-1,-50,,72-99 DAYS,85,9,72,99,DAYS,,,,
BBC,BBC-10-148,148,10,126,ARM B,2,ARM B,2,Y,Y,Y,Y,12DEC2006,07MAR2007,N,Y,03APR2007,113,,Week 16,16,Target Plaque 1 Induration (Elevation) Severity Score,TP1IND,2,,Target Plaque 1,1,1.0,2,2.0,-1,-50,,22-36 DAYS POST-LAST-DOSE,114,1,107,121,DAYS,,,,
BBC,BBC-10-148,148,10,127,ARM B,2,ARM B,2,Y,Y,Y,Y,12DEC2006,07MAR2007,N,Y,12DEC2006,1,,Day 1 Baseline,0,Target Plaque 1 Scaling Severity Score,TP1SCAL,3,,Target Plaque 1,3,3.0,3,3.0,,,,,,,,,,Y,Y,,
BBC,BBC-10-148,148,10,128,ARM B,2,ARM B,2,Y,Y,Y,Y,12DEC2006,07MAR2007,N,Y,28DEC2006,17,,Week 2,2,Target Plaque 1 Scaling Severity Score,TP1SCAL,3,,Target Plaque 1,2,2.0,3,3.0,-1,-33.3,,8-22 DAYS,15,2,8,22,DAYS,,Y,,
BBC,BBC-10-148,148,10,129,ARM B,2,ARM B,2,Y,Y,Y,Y,12DEC2006,07MAR2007,N,Y,11JAN2007,31,,Week 4,4,Target Plaque 1 Scaling Severity Score,TP1SCAL,3,,Target Plaque 1,2,2.0,3,3.0,-1,-33.3,,23-36 DAYS,29,2,23,36,DAYS,,Y,,
BBC,BBC-10-148,148,10,130,ARM B,2,ARM B,2,Y,Y,Y,Y,12DEC2006,07MAR2007,N,Y,25JAN2007,45,,Week 6,6,Target Plaque 1 Scaling Severity Score,TP1SCAL,3,,Target Plaque 1,0,0.0,3,3.0,-3,-100,,37-50 DAYS,43,2,37,50,DAYS,,Y,,
BBC,BBC-10-148,148,10,131,ARM B,2,ARM B,2,Y,Y,Y,Y,12DEC2006,07MAR2007,N,Y,08FEB2007,59,,Week 8,8,Target Plaque 1 Scaling Severity Score,TP1SCAL,3,,Target Plaque 1,2,2.0,3,3.0,-1,-33.3,,51-71 DAYS,57,2,51,71,DAYS,,Y,,
BBC,BBC-10-148,148,10,132,ARM B,2,ARM B,2,Y,Y,Y,Y,12DEC2006,07MAR2007,N,Y,15MAR2007,94,,Week 12,12,Target Plaque 1 Scaling Severity Score,TP1SCAL,3,,Target Plaque 1,0,0.0,3,3.0,-3,-100,,72-99 DAYS,85,9,72,99,DAYS,,,,
BBC,BBC-10-148,148,10,133,ARM B,2,ARM B,2,Y,Y,Y,Y,12DEC2006,07MAR2007,N,Y,03APR2007,113,,Week 16,16,Target Plaque 1 Scaling Severity Score,TP1SCAL,3,,Target Plaque 1,1,1.0,3,3.0,-2,-66.7,,22-36 DAYS POST-LAST-DOSE,114,1,107,121,DAYS,,,,
BBC,BBC-10-148,148,10,106,ARM B,2,ARM B,2,Y,Y,Y,Y,12DEC2006,07MAR2007,N,Y,12DEC2006,1,,Day 1 Baseline,0,Target Plaque 1 CPSS Score,TP1CPSS,4,,Target Plaque 1,7,7.0,7,7.0,,,,,,,,,,Y,Y,,
BBC,BBC-10-148,148,10,107,ARM B,2,ARM B,2,Y,Y,Y,Y,12DEC2006,07MAR2007,N,Y,28DEC2006,17,,Week 2,2,Target Plaque 1 CPSS Score,TP1CPSS,4,,Target Plaque 1,6,6.0,7,7.0,-1,-14.3,,8-22 DAYS,15,2,8,22,DAYS,,Y,,
BBC,BBC-10-148,148,10,108,ARM B,2,ARM B,2,Y,Y,Y,Y,12DEC2006,07MAR2007,N,Y,11JAN2007,31,,Week 4,4,Target Plaque 1 CPSS Score,TP1CPSS,4,,Target Plaque 1,4,4.0,7,7.0,-3,-42.9,,23-36 DAYS,29,2,23,36,DAYS,,Y,,
BBC,BBC-10-148,148,10,109,ARM B,2,ARM B,2,Y,Y,Y,Y,12DEC2006,07MAR2007,N,Y,25JAN2007,45,,Week 6,6,Target Plaque 1 CPSS Score,TP1CPSS,4,,Target Plaque 1,2,2.0,7,7.0,-5,-71.4,,37-50 DAYS,43,2,37,50,DAYS,,Y,,
BBC,BBC-10-148,148,10,110,ARM B,2,ARM B,2,Y,Y,Y,Y,12DEC2006,07MAR2007,N,Y,08FEB2007,59,,Week 8,8,Target Plaque 1 CPSS Score,TP1CPSS,4,,Target Plaque 1,4,4.0,7,7.0,-3,-42.9,,51-71 DAYS,57,2,51,71,DAYS,,Y,,
BBC,BBC-10-148,148,10,111,ARM B,2,ARM B,2,Y,Y,Y,Y,12DEC2006,07MAR2007,N,Y,15MAR2007,94,,Week 12,12,Target Plaque 1 CPSS Score,TP1CPSS,4,,Target Plaque 1,3,3.0,7,7.0,-4,-57.1,,72-99 DAYS,85,9,72,99,DAYS,,,,
BBC,BBC-10-148,148,10,112,ARM B,2,ARM B,2,Y,Y,Y,Y,12DEC2006,07MAR2007,N,Y,03APR2007,113,,Week 16,16,Target Plaque 1 CPSS Score,TP1CPSS,4,,Target Plaque 1,4,4.0,7,7.0,-3,-42.9,,22-36 DAYS POST-LAST-DOSE,114,1,107,121,DAYS,,,,
BBC,BBC-10-148,148,10,109,ARM B,2,ARM B,2,Y,Y,Y,Y,12DEC2006,07MAR2007,N,Y,25JAN2007,45,,Week 6,6,Target Plaque 1 CPSS Best Score During Treatment,TP1BEST,5,DERIVED,Target Plaque 1,-5,-5.0,,,,,,,,,,,,,Y,Improved During Treatment,Y
BBC,BBC-10-148,148,10,112,ARM B,2,ARM B,2,Y,Y,Y,Y,12DEC2006,07MAR2007,N,Y,,,,,,Target Plaque 1 CPSS Relapse at Week 16,TP1RLPS,6,DERIVED,Target Plaque 1,,Y,,,-3,-42.9,,,,,,,,,,,
BBC,BBC-10-148,148,10,148,ARM B,2,ARM B,2,Y,Y,Y,Y,12DEC2006,07MAR2007,N,Y,12DEC2006,1,,Day 1 Baseline,0,Target Plaque 2 Erythema Severity Score,TP2ERY,7,,Target Plaque 2,2,2.0,2,2.0,,,,,,,,,,Y,Y,,
BBC,BBC-10-148,148,10,149,ARM B,2,ARM B,2,Y,Y,Y,Y,12DEC2006,07MAR2007,N,Y,28DEC2006,17,,Week 2,2,Target Plaque 2 Erythema Severity Score,TP2ERY,7,,Target Plaque 2,2,2.0,2,2.0,0,0,,8-22 DAYS,15,2,8,22,DAYS,,Y,,
BBC,BBC-10-148,148,10,150,ARM B,2,ARM B,2,Y,Y,Y,Y,12DEC2006,07MAR2007,N,Y,11JAN2007,31,,Week 4,4,Target Plaque 2 Erythema Severity Score,TP2ERY,7,,Target Plaque 2,1,1.0,2,2.0,-1,-50,,23-36 DAYS,29,2,23,36,DAYS,,Y,,
BBC,BBC-10-148,148,10,151,ARM B,2,ARM B,2,Y,Y,Y,Y,12DEC2006,07MAR2007,N,Y,25JAN2007,45,,Week 6,6,Target Plaque 2 Erythema Severity Score,TP2ERY,7,,Target Plaque 2,1,1.0,2,2.0,-1,-50,,37-50 DAYS,43,2,37,50,DAYS,,Y,,
BBC,BBC-10-148,148,10,152,ARM B,2,ARM B,2,Y,Y,Y,Y,12DEC2006,07MAR2007,N,Y,08FEB2007,59,,Week 8,8,Target Plaque 2 Erythema Severity Score,TP2ERY,7,,Target Plaque 2,1,1.0,2,2.0,-1,-50,,51-71 DAYS,57,2,51,71,DAYS,,Y,,
BBC,BBC-10-148,148,10,153,ARM B,2,ARM B,2,Y,Y,Y,Y,12DEC2006,07MAR2007,N,Y,15MAR2007,94,,Week 12,12,Target Plaque 2 Erythema Severity Score,TP2ERY,7,,Target Plaque 2,2,2.0,2,2.0,0,0,,72-99 DAYS,85,9,72,99,DAYS,,,,
BBC,BBC-10-148,148,10,154,ARM B,2,ARM B,2,Y,Y,Y,Y,12DEC2006,07MAR2007,N,Y,03APR2007,113,,Week 16,16,Target Plaque 2 Erythema Severity Score,TP2ERY,7,,Target Plaque 2,2,2.0,2,2.0,0,0,,22-36 DAYS POST-LAST-DOSE,114,1,107,121,DAYS,,,,
BBC,BBC-10-148,148,10,155,ARM B,2,ARM B,2,Y,Y,Y,Y,12DEC2006,07MAR2007,N,Y,12DEC2006,1,,Day 1 Baseline,0,Target Plaque 2 Induration (Elevation) Severity Score,TP2IND,8,,Target Plaque 2,2,2.0,2,2.0,,,,,,,,,,Y,Y,,
BBC,BBC-10-148,148,10,156,ARM B,2,ARM B,2,Y,Y,Y,Y,12DEC2006,07MAR2007,N,Y,28DEC2006,17,,Week 2,2,Target Plaque 2 Induration (Elevation) Severity Score,TP2IND,8,,Target Plaque 2,2,2.0,2,2.0,0,0,,8-22 DAYS,15,2,8,22,DAYS,,Y,,
BBC,BBC-10-148,148,10,157,ARM B,2,ARM B,2,Y,Y,Y,Y,12DEC2006,07MAR2007,N,Y,11JAN2007,31,,Week 4,4,Target Plaque 2 Induration (Elevation) Severity Score,TP2IND,8,,Target Plaque 2,1,1.0,2,2.0,-1,-50,,23-36 DAYS,29,2,23,36,DAYS,,Y,,
BBC,BBC-10-148,148,10,158,ARM B,2,ARM B,2,Y,Y,Y,Y,12DEC2006,07MAR2007,N,Y,25JAN2007,45,,Week 6,6,Target Plaque 2 Induration (Elevation) Severity Score,TP2IND,8,,Target Plaque 2,1,1.0,2,2.0,-1,-50,,37-50 DAYS,43,2,37,50,DAYS,,Y,,
BBC,BBC-10-148,148,10,159,ARM B,2,ARM B,2,Y,Y,Y,Y,12DEC2006,07MAR2007,N,Y,08FEB2007,59,,Week 8,8,Target Plaque 2 Induration (Elevation) Severity Score,TP2IND,8,,Target Plaque 2,1,1.0,2,2.0,-1,-50,,51-71 DAYS,57,2,51,71,DAYS,,Y,,
BBC,BBC-10-148,148,10,160,ARM B,2,ARM B,2,Y,Y,Y,Y,12DEC2006,07MAR2007,N,Y,15MAR2007,94,,Week 12,12,Target Plaque 2 Induration (Elevation) Severity Score,TP2IND,8,,Target Plaque 2,1,1.0,2,2.0,-1,-50,,72-99 DAYS,85,9,72,99,DAYS,,,,
BBC,BBC-10-148,148,10,161,ARM B,2,ARM B,2,Y,Y,Y,Y,12DEC2006,07MAR2007,N,Y,03APR2007,113,,Week 16,16,Target Plaque 2 Induration (Elevation) Severity Score,TP2IND,8,,Target Plaque 2,1,1.0,2,2.0,-1,-50,,22-36 DAYS POST-LAST-DOSE,114,1,107,121,DAYS,,,,
BBC,BBC-10-148,148,10,162,ARM B,2,ARM B,2,Y,Y,Y,Y,12DEC2006,07MAR2007,N,Y,12DEC2006,1,,Day 1 Baseline,0,Target Plaque 2 Scaling Severity Score,TP2SCAL,9,,Target Plaque 2,3,3.0,3,3.0,,,,,,,,,,Y,Y,,
BBC,BBC-10-148,148,10,163,ARM B,2,ARM B,2,Y,Y,Y,Y,12DEC2006,07MAR2007,N,Y,28DEC2006,17,,Week 2,2,Target Plaque 2 Scaling Severity Score,TP2SCAL,9,,Target Plaque 2,2,2.0,3,3.0,-1,-33.3,,8-22 DAYS,15,2,8,22,DAYS,,Y,,
BBC,BBC-10-148,148,10,164,ARM B,2,ARM B,2,Y,Y,Y,Y,12DEC2006,07MAR2007,N,Y,11JAN2007,31,,Week 4,4,Target Plaque 2 Scaling Severity Score,TP2SCAL,9,,Target Plaque 2,2,2.0,3,3.0,-1,-33.3,,23-36 DAYS,29,2,23,36,DAYS,,Y,,
BBC,BBC-10-148,148,10,165,ARM B,2,ARM B,2,Y,Y,Y,Y,12DEC2006,07MAR2007,N,Y,25JAN2007,45,,Week 6,6,Target Plaque 2 Scaling Severity Score,TP2SCAL,9,,Target Plaque 2,0,0.0,3,3.0,-3,-100,,37-50 DAYS,43,2,37,50,DAYS,,Y,,
BBC,BBC-10-148,148,10,166,ARM B,2,ARM B,2,Y,Y,Y,Y,12DEC2006,07MAR2007,N,Y,08FEB2007,59,,Week 8,8,Target Plaque 2 Scaling Severity Score,TP2SCAL,9,,Target Plaque 2,2,2.0,3,3.0,-1,-33.3,,51-71 DAYS,57,2,51,71,DAYS,,Y,,
BBC,BBC-10-148,148,10,167,ARM B,2,ARM B,2,Y,Y,Y,Y,12DEC2006,07MAR2007,N,Y,15MAR2007,94,,Week 12,12,Target Plaque 2 Scaling Severity Score,TP2SCAL,9,,Target Plaque 2,0,0.0,3,3.0,-3,-100,,72-99 DAYS,85,9,72,99,DAYS,,,,
BBC,BBC-10-148,148,10,168,ARM B,2,ARM B,2,Y,Y,Y,Y,12DEC2006,07MAR2007,N,Y,03APR2007,113,,Week 16,16,Target Plaque 2 Scaling Severity Score,TP2SCAL,9,,Target Plaque 2,1,1.0,3,3.0,-2,-66.7,,22-36 DAYS POST-LAST-DOSE,114,1,107,121,DAYS,,,,
BBC,BBC-10-148,148,10,141,ARM B,2,ARM B,2,Y,Y,Y,Y,12DEC2006,07MAR2007,N,Y,12DEC2006,1,,Day 1 Baseline,0,Target Plaque 2 CPSS Score,TP2CPSS,10,,Target Plaque 2,7,7.0,7,7.0,,,,,,,,,,Y,Y,,
BBC,BBC-10-148,148,10,142,ARM B,2,ARM B,2,Y,Y,Y,Y,12DEC2006,07MAR2007,N,Y,28DEC2006,17,,Week 2,2,Target Plaque 2 CPSS Score,TP2CPSS,10,,Target Plaque 2,6,6.0,7,7.0,-1,-14.3,,8-22 DAYS,15,2,8,22,DAYS,,Y,,
BBC,BBC-10-148,148,10,143,ARM B,2,ARM B,2,Y,Y,Y,Y,12DEC2006,07MAR2007,N,Y,11JAN2007,31,,Week 4,4,Target Plaque 2 CPSS Score,TP2CPSS,10,,Target Plaque 2,4,4.0,7,7.0,-3,-42.9,,23-36 DAYS,29,2,23,36,DAYS,,Y,,
BBC,BBC-10-148,148,10,144,ARM B,2,ARM B,2,Y,Y,Y,Y,12DEC2006,07MAR2007,N,Y,25JAN2007,45,,Week 6,6,Target Plaque 2 CPSS Score,TP2CPSS,10,,Target Plaque 2,2,2.0,7,7.0,-5,-71.4,,37-50 DAYS,43,2,37,50,DAYS,,Y,,
BBC,BBC-10-148,148,10,145,ARM B,2,ARM B,2,Y,Y,Y,Y,12DEC2006,07MAR2007,N,Y,08FEB2007,59,,Week 8,8,Target Plaque 2 CPSS Score,TP2CPSS,10,,Target Plaque 2,4,4.0,7,7.0,-3,-42.9,,51-71 DAYS,57,2,51,71,DAYS,,Y,,
BBC,BBC-10-148,148,10,146,ARM B,2,ARM B,2,Y,Y,Y,Y,12DEC2006,07MAR2007,N,Y,15MAR2007,94,,Week 12,12,Target Plaque 2 CPSS Score,TP2CPSS,10,,Target Plaque 2,3,3.0,7,7.0,-4,-57.1,,72-99 DAYS,85,9,72,99,DAYS,,,,
BBC,BBC-10-148,148,10,147,ARM B,2,ARM B,2,Y,Y,Y,Y,12DEC2006,07MAR2007,N,Y,03APR2007,113,,Week 16,16,Target Plaque 2 CPSS Score,TP2CPSS,10,,Target Plaque 2,4,4.0,7,7.0,-3,-42.9,,22-36 DAYS POST-LAST-DOSE,114,1,107,121,DAYS,,,,
BBC,BBC-10-148,148,10,144,ARM B,2,ARM B,2,Y,Y,Y,Y,12DEC2006,07MAR2007,N,Y,25JAN2007,45,,Week 6,6,Target Plaque 2 CPSS Best Score During Treatment,TP2BEST,11,DERIVED,Target Plaque 2,-5,-5.0,,,,,,,,,,,,,Y,Improved During Treatment,Y
BBC,BBC-10-148,148,10,147,ARM B,2,ARM B,2,Y,Y,Y,Y,12DEC2006,07MAR2007,N,Y,,,,,,Target Plaque 2 CPSS Relapse at Week 16,TP2RLPS,12,DERIVED,Target Plaque 2,,Y,,,-3,-42.9,,,,,,,,,,,
BBC,BBC-10-148,148,10,,ARM B,2,ARM B,2,Y,Y,Y,Y,12DEC2006,07MAR2007,N,Y,12DEC2006,1,,Day 1 Baseline,0,Average Erythema Severity Score,AVGERY,13,DERIVED,Average,2,2.0,2,2.0,,,,,,,,,,Y,Y,,
BBC,BBC-10-148,148,10,,ARM B,2,ARM B,2,Y,Y,Y,Y,12DEC2006,07MAR2007,N,Y,28DEC2006,17,,Week 2,2,Average Erythema Severity Score,AVGERY,13,DERIVED,Average,2,2.0,2,2.0,0,0,,8-22 DAYS,15,2,8,22,DAYS,,Y,,
BBC,BBC-10-148,148,10,,ARM B,2,ARM B,2,Y,Y,Y,Y,12DEC2006,07MAR2007,N,Y,11JAN2007,31,,Week 4,4,Average Erythema Severity Score,AVGERY,13,DERIVED,Average,1,1.0,2,2.0,-1,-50,,23-36 DAYS,29,2,23,36,DAYS,,Y,,
BBC,BBC-10-148,148,10,,ARM B,2,ARM B,2,Y,Y,Y,Y,12DEC2006,07MAR2007,N,Y,25JAN2007,45,,Week 6,6,Average Erythema Severity Score,AVGERY,13,DERIVED,Average,1,1.0,2,2.0,-1,-50,,37-50 DAYS,43,2,37,50,DAYS,,Y,,
BBC,BBC-10-148,148,10,,ARM B,2,ARM B,2,Y,Y,Y,Y,12DEC2006,07MAR2007,N,Y,08FEB2007,59,,Week 8,8,Average Erythema Severity Score,AVGERY,13,DERIVED,Average,1,1.0,2,2.0,-1,-50,,51-71 DAYS,57,2,51,71,DAYS,,Y,,
BBC,BBC-10-148,148,10,,ARM B,2,ARM B,2,Y,Y,Y,Y,12DEC2006,07MAR2007,N,Y,15MAR2007,94,,Week 12,12,Average Erythema Severity Score,AVGERY,13,DERIVED,Average,2,2.0,2,2.0,0,0,,72-99 DAYS,85,9,72,99,DAYS,,,,
BBC,BBC-10-148,148,10,,ARM B,2,ARM B,2,Y,Y,Y,Y,12DEC2006,07MAR2007,N,Y,03APR2007,113,,Week 16,16,Average Erythema Severity Score,AVGERY,13,DERIVED,Average,2,2.0,2,2.0,0,0,,22-36 DAYS POST-LAST-DOSE,114,1,107,121,DAYS,,,,
BBC,BBC-10-148,148,10,,ARM B,2,ARM B,2,Y,Y,Y,Y,12DEC2006,07MAR2007,N,Y,12DEC2006,1,,Day 1 Baseline,0,Average Induration (Elevation) Severity Score,AVGIND,14,DERIVED,Average,2,2.0,2,2.0,,,,,,,,,,Y,Y,,
BBC,BBC-10-148,148,10,,ARM B,2,ARM B,2,Y,Y,Y,Y,12DEC2006,07MAR2007,N,Y,28DEC2006,17,,Week 2,2,Average Induration (Elevation) Severity Score,AVGIND,14,DERIVED,Average,2,2.0,2,2.0,0,0,,8-22 DAYS,15,2,8,22,DAYS,,Y,,
BBC,BBC-10-148,148,10,,ARM B,2,ARM B,2,Y,Y,Y,Y,12DEC2006,07MAR2007,N,Y,11JAN2007,31,,Week 4,4,Average Induration (Elevation) Severity Score,AVGIND,14,DERIVED,Average,1,1.0,2,2.0,-1,-50,,23-36 DAYS,29,2,23,36,DAYS,,Y,,
BBC,BBC-10-148,148,10,,ARM B,2,ARM B,2,Y,Y,Y,Y,12DEC2006,07MAR2007,N,Y,25JAN2007,45,,Week 6,6,Average Induration (Elevation) Severity Score,AVGIND,14,DERIVED,Average,1,1.0,2,2.0,-1,-50,,37-50 DAYS,43,2,37,50,DAYS,,Y,,
BBC,BBC-10-148,148,10,,ARM B,2,ARM B,2,Y,Y,Y,Y,12DEC2006,07MAR2007,N,Y,08FEB2007,59,,Week 8,8,Average Induration (Elevation) Severity Score,AVGIND,14,DERIVED,Average,1,1.0,2,2.0,-1,-50,,51-71 DAYS,57,2,51,71,DAYS,,Y,,
BBC,BBC-10-148,148,10,,ARM B,2,ARM B,2,Y,Y,Y,Y,12DEC2006,07MAR2007,N,Y,15MAR2007,94,,Week 12,12,Average Induration (Elevation) Severity Score,AVGIND,14,DERIVED,Average,1,1.0,2,2.0,-1,-50,,72-99 DAYS,85,9,72,99,DAYS,,,,
BBC,BBC-10-148,148,10,,ARM B,2,ARM B,2,Y,Y,Y,Y,12DEC2006,07MAR2007,N,Y,03APR2007,113,,Week 16,16,Average Induration (Elevation) Severity Score,AVGIND,14,DERIVED,Average,1,1.0,2,2.0,-1,-50,,22-36 DAYS POST-LAST-DOSE,114,1,107,121,DAYS,,,,
BBC,BBC-10-148,148,10,,ARM B,2,ARM B,2,Y,Y,Y,Y,12DEC2006,07MAR2007,N,Y,12DEC2006,1,,Day 1 Baseline,0,Average Scaling Severity Score,AVGSCAL,15,DERIVED,Average,3,3.0,3,3.0,,,,,,,,,,Y,Y,,
BBC,BBC-10-148,148,10,,ARM B,2,ARM B,2,Y,Y,Y,Y,12DEC2006,07MAR2007,N,Y,28DEC2006,17,,Week 2,2,Average Scaling Severity Score,AVGSCAL,15,DERIVED,Average,2,2.0,3,3.0,-1,-33.3,,8-22 DAYS,15,2,8,22,DAYS,,Y,,
BBC,BBC-10-148,148,10,,ARM B,2,ARM B,2,Y,Y,Y,Y,12DEC2006,07MAR2007,N,Y,11JAN2007,31,,Week 4,4,Average Scaling Severity Score,AVGSCAL,15,DERIVED,Average,2,2.0,3,3.0,-1,-33.3,,23-36 DAYS,29,2,23,36,DAYS,,Y,,
BBC,BBC-10-148,148,10,,ARM B,2,ARM B,2,Y,Y,Y,Y,12DEC2006,07MAR2007,N,Y,25JAN2007,45,,Week 6,6,Average Scaling Severity Score,AVGSCAL,15,DERIVED,Average,0,0.0,3,3.0,-3,-100,,37-50 DAYS,43,2,37,50,DAYS,,Y,,
BBC,BBC-10-148,148,10,,ARM B,2,ARM B,2,Y,Y,Y,Y,12DEC2006,07MAR2007,N,Y,08FEB2007,59,,Week 8,8,Average Scaling Severity Score,AVGSCAL,15,DERIVED,Average,2,2.0,3,3.0,-1,-33.3,,51-71 DAYS,57,2,51,71,DAYS,,Y,,
BBC,BBC-10-148,148,10,,ARM B,2,ARM B,2,Y,Y,Y,Y,12DEC2006,07MAR2007,N,Y,15MAR2007,94,,Week 12,12,Average Scaling Severity Score,AVGSCAL,15,DERIVED,Average,0,0.0,3,3.0,-3,-100,,72-99 DAYS,85,9,72,99,DAYS,,,,
BBC,BBC-10-148,148,10,,ARM B,2,ARM B,2,Y,Y,Y,Y,12DEC2006,07MAR2007,N,Y,03APR2007,113,,Week 16,16,Average Scaling Severity Score,AVGSCAL,15,DERIVED,Average,1,1.0,3,3.0,-2,-66.7,,22-36 DAYS POST-LAST-DOSE,114,1,107,121,DAYS,,,,
BBC,BBC-10-148,148,10,,ARM B,2,ARM B,2,Y,Y,Y,Y,12DEC2006,07MAR2007,N,Y,12DEC2006,1,,Day 1 Baseline,0,Average CPSS Score,AVGCPSS,16,DERIVED,Average,7,7.0,7,7.0,,,,,,,,,,Y,Y,,
BBC,BBC-10-148,148,10,,ARM B,2,ARM B,2,Y,Y,Y,Y,12DEC2006,07MAR2007,N,Y,28DEC2006,17,,Week 2,2,Average CPSS Score,AVGCPSS,16,DERIVED,Average,6,6.0,7,7.0,-1,-14.3,,8-22 DAYS,15,2,8,22,DAYS,,Y,,
BBC,BBC-10-148,148,10,,ARM B,2,ARM B,2,Y,Y,Y,Y,12DEC2006,07MAR2007,N,Y,11JAN2007,31,,Week 4,4,Average CPSS Score,AVGCPSS,16,DERIVED,Average,4,4.0,7,7.0,-3,-42.9,,23-36 DAYS,29,2,23,36,DAYS,,Y,,
BBC,BBC-10-148,148,10,,ARM B,2,ARM B,2,Y,Y,Y,Y,12DEC2006,07MAR2007,N,Y,25JAN2007,45,,Week 6,6,Average CPSS Score,AVGCPSS,16,DERIVED,Average,2,2.0,7,7.0,-5,-71.4,,37-50 DAYS,43,2,37,50,DAYS,,Y,,
BBC,BBC-10-148,148,10,,ARM B,2,ARM B,2,Y,Y,Y,Y,12DEC2006,07MAR2007,N,Y,08FEB2007,59,,Week 8,8,Average CPSS Score,AVGCPSS,16,DERIVED,Average,4,4.0,7,7.0,-3,-42.9,,51-71 DAYS,57,2,51,71,DAYS,,Y,,
BBC,BBC-10-148,148,10,,ARM B,2,ARM B,2,Y,Y,Y,Y,12DEC2006,07MAR2007,N,Y,15MAR2007,94,,Week 12,12,Average CPSS Score,AVGCPSS,16,DERIVED,Average,3,3.0,7,7.0,-4,-57.1,,72-99 DAYS,85,9,72,99,DAYS,,,,
BBC,BBC-10-148,148,10,,ARM B,2,ARM B,2,Y,Y,Y,Y,12DEC2006,07MAR2007,N,Y,03APR2007,113,,Week 16,16,Average CPSS Score,AVGCPSS,16,DERIVED,Average,4,4.0,7,7.0,-3,-42.9,,22-36 DAYS POST-LAST-DOSE,114,1,107,121,DAYS,,,,
BBC,BBC-10-148,148,10,,ARM B,2,ARM B,2,Y,Y,Y,Y,12DEC2006,07MAR2007,N,Y,25JAN2007,45,,Week 6,6,Average CPSS Best Score During Treatment,AVGBEST,17,DERIVED,Average,-5,-5.0,,0.0,,,,,,,,,,,Y,Improved During Treatment,Y
BBC,BBC-10-148,148,10,,ARM B,2,ARM B,2,Y,Y,Y,Y,12DEC2006,07MAR2007,N,Y,,,,,,Average CPSS Relapse at Week 16,AVGRLPS,18,DERIVED,Average,,Y,,0.0,-3,-42.9,,,,,,,,,,,
BBC,BBC-10-149,149,10,113,ARM A,1,ARM A,1,Y,Y,Y,Y,13DEC2006,13MAR2007,N,Y,13DEC2006,1,,Day 1 Baseline,0,Target Plaque 1 Erythema Severity Score,TP1ERY,1,,Target Plaque 1,2,2.0,2,2.0,,,,,,,,,,Y,Y,,
BBC,BBC-10-149,149,10,114,ARM A,1,ARM A,1,Y,Y,Y,Y,13DEC2006,13MAR2007,N,Y,29DEC2006,17,,Week 2,2,Target Plaque 1 Erythema Severity Score,TP1ERY,1,,Target Plaque 1,2,2.0,2,2.0,0,0,,8-22 DAYS,15,2,8,22,DAYS,,Y,,
BBC,BBC-10-149,149,10,115,ARM A,1,ARM A,1,Y,Y,Y,Y,13DEC2006,13MAR2007,N,Y,12JAN2007,31,,Week 4,4,Target Plaque 1 Erythema Severity Score,TP1ERY,1,,Target Plaque 1,1,1.0,2,2.0,-1,-50,,23-36 DAYS,29,2,23,36,DAYS,,Y,,
BBC,BBC-10-149,149,10,116,ARM A,1,ARM A,1,Y,Y,Y,Y,13DEC2006,13MAR2007,N,Y,26JAN2007,45,,Week 6,6,Target Plaque 1 Erythema Severity Score,TP1ERY,1,,Target Plaque 1,0,0.0,2,2.0,-2,-100,,37-50 DAYS,43,2,37,50,DAYS,,Y,,
BBC,BBC-10-149,149,10,117,ARM A,1,ARM A,1,Y,Y,Y,Y,13DEC2006,13MAR2007,N,Y,12FEB2007,62,,Week 8,8,Target Plaque 1 Erythema Severity Score,TP1ERY,1,,Target Plaque 1,0,0.0,2,2.0,-2,-100,,51-71 DAYS,57,5,51,71,DAYS,,Y,,
BBC,BBC-10-149,149,10,118,ARM A,1,ARM A,1,Y,Y,Y,Y,13DEC2006,13MAR2007,N,Y,13MAR2007,91,,Week 12,12,Target Plaque 1 Erythema Severity Score,TP1ERY,1,,Target Plaque 1,0,0.0,2,2.0,-2,-100,,72-99 DAYS,85,6,72,99,DAYS,,Y,,
BBC,BBC-10-149,149,10,119,ARM A,1,ARM A,1,Y,Y,Y,Y,13DEC2006,13MAR2007,N,Y,16APR2007,125,,Week 16,16,Target Plaque 1 Erythema Severity Score,TP1ERY,1,,Target Plaque 1,0,0.0,2,2.0,-2,-100,,22-36 DAYS POST-LAST-DOSE,119,6,112,126,DAYS,,,,
BBC,BBC-10-149,149,10,120,ARM A,1,ARM A,1,Y,Y,Y,Y,13DEC2006,13MAR2007,N,Y,13DEC2006,1,,Day 1 Baseline,0,Target Plaque 1 Induration (Elevation) Severity Score,TP1IND,2,,Target Plaque 1,2,2.0,2,2.0,,,,,,,,,,Y,Y,,
BBC,BBC-10-149,149,10,121,ARM A,1,ARM A,1,Y,Y,Y,Y,13DEC2006,13MAR2007,N,Y,29DEC2006,17,,Week 2,2,Target Plaque 1 Induration (Elevation) Severity Score,TP1IND,2,,Target Plaque 1,2,2.0,2,2.0,0,0,,8-22 DAYS,15,2,8,22,DAYS,,Y,,
BBC,BBC-10-149,149,10,122,ARM A,1,ARM A,1,Y,Y,Y,Y,13DEC2006,13MAR2007,N,Y,12JAN2007,31,,Week 4,4,Target Plaque 1 Induration (Elevation) Severity Score,TP1IND,2,,Target Plaque 1,2,2.0,2,2.0,0,0,,23-36 DAYS,29,2,23,36,DAYS,,Y,,
BBC,BBC-10-149,149,10,123,ARM A,1,ARM A,1,Y,Y,Y,Y,13DEC2006,13MAR2007,N,Y,26JAN2007,45,,Week 6,6,Target Plaque 1 Induration (Elevation) Severity Score,TP1IND,2,,Target Plaque 1,1,1.0,2,2.0,-1,-50,,37-50 DAYS,43,2,37,50,DAYS,,Y,,
BBC,BBC-10-149,149,10,124,ARM A,1,ARM A,1,Y,Y,Y,Y,13DEC2006,13MAR2007,N,Y,12FEB2007,62,,Week 8,8,Target Plaque 1 Induration (Elevation) Severity Score,TP1IND,2,,Target Plaque 1,1,1.0,2,2.0,-1,-50,,51-71 DAYS,57,5,51,71,DAYS,,Y,,
BBC,BBC-10-149,149,10,125,ARM A,1,ARM A,1,Y,Y,Y,Y,13DEC2006,13MAR2007,N,Y,13MAR2007,91,,Week 12,12,Target Plaque 1 Induration (Elevation) Severity Score,TP1IND,2,,Target Plaque 1,0,0.0,2,2.0,-2,-100,,72-99 DAYS,85,6,72,99,DAYS,,Y,,
BBC,BBC-10-149,149,10,126,ARM A,1,ARM A,1,Y,Y,Y,Y,13DEC2006,13MAR2007,N,Y,16APR2007,125,,Week 16,16,Target Plaque 1 Induration (Elevation) Severity Score,TP1IND,2,,Target Plaque 1,0,0.0,2,2.0,-2,-100,,22-36 DAYS POST-LAST-DOSE,119,6,112,126,DAYS,,,,
BBC,BBC-10-149,149,10,127,ARM A,1,ARM A,1,Y,Y,Y,Y,13DEC2006,13MAR2007,N,Y,13DEC2006,1,,Day 1 Baseline,0,Target Plaque 1 Scaling Severity Score,TP1SCAL,3,,Target Plaque 1,2,2.0,2,2.0,,,,,,,,,,Y,Y,,
BBC,BBC-10-149,149,10,128,ARM A,1,ARM A,1,Y,Y,Y,Y,13DEC2006,13MAR2007,N,Y,29DEC2006,17,,Week 2,2,Target Plaque 1 Scaling Severity Score,TP1SCAL,3,,Target Plaque 1,2,2.0,2,2.0,0,0,,8-22 DAYS,15,2,8,22,DAYS,,Y,,
BBC,BBC-10-149,149,10,129,ARM A,1,ARM A,1,Y,Y,Y,Y,13DEC2006,13MAR2007,N,Y,12JAN2007,31,,Week 4,4,Target Plaque 1 Scaling Severity Score,TP1SCAL,3,,Target Plaque 1,2,2.0,2,2.0,0,0,,23-36 DAYS,29,2,23,36,DAYS,,Y,,
BBC,BBC-10-149,149,10,130,ARM A,1,ARM A,1,Y,Y,Y,Y,13DEC2006,13MAR2007,N,Y,26JAN2007,45,,Week 6,6,Target Plaque 1 Scaling Severity Score,TP1SCAL,3,,Target Plaque 1,2,2.0,2,2.0,0,0,,37-50 DAYS,43,2,37,50,DAYS,,Y,,
BBC,BBC-10-149,149,10,131,ARM A,1,ARM A,1,Y,Y,Y,Y,13DEC2006,13MAR2007,N,Y,12FEB2007,62,,Week 8,8,Target Plaque 1 Scaling Severity Score,TP1SCAL,3,,Target Plaque 1,1,1.0,2,2.0,-1,-50,,51-71 DAYS,57,5,51,71,DAYS,,Y,,
BBC,BBC-10-149,149,10,132,ARM A,1,ARM A,1,Y,Y,Y,Y,13DEC2006,13MAR2007,N,Y,13MAR2007,91,,Week 12,12,Target Plaque 1 Scaling Severity Score,TP1SCAL,3,,Target Plaque 1,0,0.0,2,2.0,-2,-100,,72-99 DAYS,85,6,72,99,DAYS,,Y,,
BBC,BBC-10-149,149,10,133,ARM A,1,ARM A,1,Y,Y,Y,Y,13DEC2006,13MAR2007,N,Y,16APR2007,125,,Week 16,16,Target Plaque 1 Scaling Severity Score,TP1SCAL,3,,Target Plaque 1,1,1.0,2,2.0,-1,-50,,22-36 DAYS POST-LAST-DOSE,119,6,112,126,DAYS,,,,
BBC,BBC-10-149,149,10,106,ARM A,1,ARM A,1,Y,Y,Y,Y,13DEC2006,13MAR2007,N,Y,13DEC2006,1,,Day 1 Baseline,0,Target Plaque 1 CPSS Score,TP1CPSS,4,,Target Plaque 1,6,6.0,6,6.0,,,,,,,,,,Y,Y,,
BBC,BBC-10-149,149,10,107,ARM A,1,ARM A,1,Y,Y,Y,Y,13DEC2006,13MAR2007,N,Y,29DEC2006,17,,Week 2,2,Target Plaque 1 CPSS Score,TP1CPSS,4,,Target Plaque 1,6,6.0,6,6.0,0,0,,8-22 DAYS,15,2,8,22,DAYS,,Y,,
BBC,BBC-10-149,149,10,108,ARM A,1,ARM A,1,Y,Y,Y,Y,13DEC2006,13MAR2007,N,Y,12JAN2007,31,,Week 4,4,Target Plaque 1 CPSS Score,TP1CPSS,4,,Target Plaque 1,5,5.0,6,6.0,-1,-16.7,,23-36 DAYS,29,2,23,36,DAYS,,Y,,
BBC,BBC-10-149,149,10,109,ARM A,1,ARM A,1,Y,Y,Y,Y,13DEC2006,13MAR2007,N,Y,26JAN2007,45,,Week 6,6,Target Plaque 1 CPSS Score,TP1CPSS,4,,Target Plaque 1,3,3.0,6,6.0,-3,-50,,37-50 DAYS,43,2,37,50,DAYS,,Y,,
BBC,BBC-10-149,149,10,110,ARM A,1,ARM A,1,Y,Y,Y,Y,13DEC2006,13MAR2007,N,Y,12FEB2007,62,,Week 8,8,Target Plaque 1 CPSS Score,TP1CPSS,4,,Target Plaque 1,2,2.0,6,6.0,-4,-66.7,,51-71 DAYS,57,5,51,71,DAYS,,Y,,
BBC,BBC-10-149,149,10,111,ARM A,1,ARM A,1,Y,Y,Y,Y,13DEC2006,13MAR2007,N,Y,13MAR2007,91,,Week 12,12,Target Plaque 1 CPSS Score,TP1CPSS,4,,Target Plaque 1,0,0.0,6,6.0,-6,-100,,72-99 DAYS,85,6,72,99,DAYS,,Y,,
BBC,BBC-10-149,149,10,112,ARM A,1,ARM A,1,Y,Y,Y,Y,13DEC2006,13MAR2007,N,Y,16APR2007,125,,Week 16,16,Target Plaque 1 CPSS Score,TP1CPSS,4,,Target Plaque 1,1,1.0,6,6.0,-5,-83.3,,22-36 DAYS POST-LAST-DOSE,119,6,112,126,DAYS,,,,
BBC,BBC-10-149,149,10,111,ARM A,1,ARM A,1,Y,Y,Y,Y,13DEC2006,13MAR2007,N,Y,13MAR2007,91,,Week 12,12,Target Plaque 1 CPSS Best Score During Treatment,TP1BEST,5,DERIVED,Target Plaque 1,-6,-6.0,,,,,,,,,,,,,Y,Improved During Treatment,Y
BBC,BBC-10-149,149,10,112,ARM A,1,ARM A,1,Y,Y,Y,Y,13DEC2006,13MAR2007,N,Y,,,,,,Target Plaque 1 CPSS Relapse at Week 16,TP1RLPS,6,DERIVED,Target Plaque 1,,N,,,-5,-83.3,,,,,,,,,,,
BBC,BBC-10-149,149,10,148,ARM A,1,ARM A,1,Y,Y,Y,Y,13DEC2006,13MAR2007,N,Y,13DEC2006,1,,Day 1 Baseline,0,Target Plaque 2 Erythema Severity Score,TP2ERY,7,,Target Plaque 2,2,2.0,2,2.0,,,,,,,,,,Y,Y,,
BBC,BBC-10-149,149,10,149,ARM A,1,ARM A,1,Y,Y,Y,Y,13DEC2006,13MAR2007,N,Y,29DEC2006,17,,Week 2,2,Target Plaque 2 Erythema Severity Score,TP2ERY,7,,Target Plaque 2,2,2.0,2,2.0,0,0,,8-22 DAYS,15,2,8,22,DAYS,,Y,,
BBC,BBC-10-149,149,10,150,ARM A,1,ARM A,1,Y,Y,Y,Y,13DEC2006,13MAR2007,N,Y,12JAN2007,31,,Week 4,4,Target Plaque 2 Erythema Severity Score,TP2ERY,7,,Target Plaque 2,1,1.0,2,2.0,-1,-50,,23-36 DAYS,29,2,23,36,DAYS,,Y,,
BBC,BBC-10-149,149,10,151,ARM A,1,ARM A,1,Y,Y,Y,Y,13DEC2006,13MAR2007,N,Y,26JAN2007,45,,Week 6,6,Target Plaque 2 Erythema Severity Score,TP2ERY,7,,Target Plaque 2,0,0.0,2,2.0,-2,-100,,37-50 DAYS,43,2,37,50,DAYS,,Y,,
BBC,BBC-10-149,149,10,152,ARM A,1,ARM A,1,Y,Y,Y,Y,13DEC2006,13MAR2007,N,Y,12FEB2007,62,,Week 8,8,Target Plaque 2 Erythema Severity Score,TP2ERY,7,,Target Plaque 2,0,0.0,2,2.0,-2,-100,,51-71 DAYS,57,5,51,71,DAYS,,Y,,
BBC,BBC-10-149,149,10,153,ARM A,1,ARM A,1,Y,Y,Y,Y,13DEC2006,13MAR2007,N,Y,13MAR2007,91,,Week 12,12,Target Plaque 2 Erythema Severity Score,TP2ERY,7,,Target Plaque 2,0,0.0,2,2.0,-2,-100,,72-99 DAYS,85,6,72,99,DAYS,,Y,,
BBC,BBC-10-149,149,10,154,ARM A,1,ARM A,1,Y,Y,Y,Y,13DEC2006,13MAR2007,N,Y,16APR2007,125,,Week 16,16,Target Plaque 2 Erythema Severity Score,TP2ERY,7,,Target Plaque 2,0,0.0,2,2.0,-2,-100,,22-36 DAYS POST-LAST-DOSE,119,6,112,126,DAYS,,,,
BBC,BBC-10-149,149,10,155,ARM A,1,ARM A,1,Y,Y,Y,Y,13DEC2006,13MAR2007,N,Y,13DEC2006,1,,Day 1 Baseline,0,Target Plaque 2 Induration (Elevation) Severity Score,TP2IND,8,,Target Plaque 2,2,2.0,2,2.0,,,,,,,,,,Y,Y,,
BBC,BBC-10-149,149,10,156,ARM A,1,ARM A,1,Y,Y,Y,Y,13DEC2006,13MAR2007,N,Y,29DEC2006,17,,Week 2,2,Target Plaque 2 Induration (Elevation) Severity Score,TP2IND,8,,Target Plaque 2,2,2.0,2,2.0,0,0,,8-22 DAYS,15,2,8,22,DAYS,,Y,,
BBC,BBC-10-149,149,10,157,ARM A,1,ARM A,1,Y,Y,Y,Y,13DEC2006,13MAR2007,N,Y,12JAN2007,31,,Week 4,4,Target Plaque 2 Induration (Elevation) Severity Score,TP2IND,8,,Target Plaque 2,2,2.0,2,2.0,0,0,,23-36 DAYS,29,2,23,36,DAYS,,Y,,
BBC,BBC-10-149,149,10,158,ARM A,1,ARM A,1,Y,Y,Y,Y,13DEC2006,13MAR2007,N,Y,26JAN2007,45,,Week 6,6,Target Plaque 2 Induration (Elevation) Severity Score,TP2IND,8,,Target Plaque 2,0,0.0,2,2.0,-2,-100,,37-50 DAYS,43,2,37,50,DAYS,,Y,,
BBC,BBC-10-149,149,10,159,ARM A,1,ARM A,1,Y,Y,Y,Y,13DEC2006,13MAR2007,N,Y,12FEB2007,62,,Week 8,8,Target Plaque 2 Induration (Elevation) Severity Score,TP2IND,8,,Target Plaque 2,0,0.0,2,2.0,-2,-100,,51-71 DAYS,57,5,51,71,DAYS,,Y,,
BBC,BBC-10-149,149,10,160,ARM A,1,ARM A,1,Y,Y,Y,Y,13DEC2006,13MAR2007,N,Y,13MAR2007,91,,Week 12,12,Target Plaque 2 Induration (Elevation) Severity Score,TP2IND,8,,Target Plaque 2,0,0.0,2,2.0,-2,-100,,72-99 DAYS,85,6,72,99,DAYS,,Y,,
BBC,BBC-10-149,149,10,161,ARM A,1,ARM A,1,Y,Y,Y,Y,13DEC2006,13MAR2007,N,Y,16APR2007,125,,Week 16,16,Target Plaque 2 Induration (Elevation) Severity Score,TP2IND,8,,Target Plaque 2,0,0.0,2,2.0,-2,-100,,22-36 DAYS POST-LAST-DOSE,119,6,112,126,DAYS,,,,
BBC,BBC-10-149,149,10,162,ARM A,1,ARM A,1,Y,Y,Y,Y,13DEC2006,13MAR2007,N,Y,13DEC2006,1,,Day 1 Baseline,0,Target Plaque 2 Scaling Severity Score,TP2SCAL,9,,Target Plaque 2,2,2.0,2,2.0,,,,,,,,,,Y,Y,,
BBC,BBC-10-149,149,10,163,ARM A,1,ARM A,1,Y,Y,Y,Y,13DEC2006,13MAR2007,N,Y,29DEC2006,17,,Week 2,2,Target Plaque 2 Scaling Severity Score,TP2SCAL,9,,Target Plaque 2,2,2.0,2,2.0,0,0,,8-22 DAYS,15,2,8,22,DAYS,,Y,,
BBC,BBC-10-149,149,10,164,ARM A,1,ARM A,1,Y,Y,Y,Y,13DEC2006,13MAR2007,N,Y,12JAN2007,31,,Week 4,4,Target Plaque 2 Scaling Severity Score,TP2SCAL,9,,Target Plaque 2,2,2.0,2,2.0,0,0,,23-36 DAYS,29,2,23,36,DAYS,,Y,,
BBC,BBC-10-149,149,10,165,ARM A,1,ARM A,1,Y,Y,Y,Y,13DEC2006,13MAR2007,N,Y,26JAN2007,45,,Week 6,6,Target Plaque 2 Scaling Severity Score,TP2SCAL,9,,Target Plaque 2,0,0.0,2,2.0,-2,-100,,37-50 DAYS,43,2,37,50,DAYS,,Y,,
BBC,BBC-10-149,149,10,166,ARM A,1,ARM A,1,Y,Y,Y,Y,13DEC2006,13MAR2007,N,Y,12FEB2007,62,,Week 8,8,Target Plaque 2 Scaling Severity Score,TP2SCAL,9,,Target Plaque 2,0,0.0,2,2.0,-2,-100,,51-71 DAYS,57,5,51,71,DAYS,,Y,,
BBC,BBC-10-149,149,10,167,ARM A,1,ARM A,1,Y,Y,Y,Y,13DEC2006,13MAR2007,N,Y,13MAR2007,91,,Week 12,12,Target Plaque 2 Scaling Severity Score,TP2SCAL,9,,Target Plaque 2,0,0.0,2,2.0,-2,-100,,72-99 DAYS,85,6,72,99,DAYS,,Y,,
BBC,BBC-10-149,149,10,168,ARM A,1,ARM A,1,Y,Y,Y,Y,13DEC2006,13MAR2007,N,Y,16APR2007,125,,Week 16,16,Target Plaque 2 Scaling Severity Score,TP2SCAL,9,,Target Plaque 2,0,0.0,2,2.0,-2,-100,,22-36 DAYS POST-LAST-DOSE,119,6,112,126,DAYS,,,,
BBC,BBC-10-149,149,10,141,ARM A,1,ARM A,1,Y,Y,Y,Y,13DEC2006,13MAR2007,N,Y,13DEC2006,1,,Day 1 Baseline,0,Target Plaque 2 CPSS Score,TP2CPSS,10,,Target Plaque 2,6,6.0,6,6.0,,,,,,,,,,Y,Y,,
BBC,BBC-10-149,149,10,142,ARM A,1,ARM A,1,Y,Y,Y,Y,13DEC2006,13MAR2007,N,Y,29DEC2006,17,,Week 2,2,Target Plaque 2 CPSS Score,TP2CPSS,10,,Target Plaque 2,6,6.0,6,6.0,0,0,,8-22 DAYS,15,2,8,22,DAYS,,Y,,
BBC,BBC-10-149,149,10,143,ARM A,1,ARM A,1,Y,Y,Y,Y,13DEC2006,13MAR2007,N,Y,12JAN2007,31,,Week 4,4,Target Plaque 2 CPSS Score,TP2CPSS,10,,Target Plaque 2,5,5.0,6,6.0,-1,-16.7,,23-36 DAYS,29,2,23,36,DAYS,,Y,,
BBC,BBC-10-149,149,10,144,ARM A,1,ARM A,1,Y,Y,Y,Y,13DEC2006,13MAR2007,N,Y,26JAN2007,45,,Week 6,6,Target Plaque 2 CPSS Score,TP2CPSS,10,,Target Plaque 2,0,0.0,6,6.0,-6,-100,,37-50 DAYS,43,2,37,50,DAYS,,Y,,
BBC,BBC-10-149,149,10,145,ARM A,1,ARM A,1,Y,Y,Y,Y,13DEC2006,13MAR2007,N,Y,12FEB2007,62,,Week 8,8,Target Plaque 2 CPSS Score,TP2CPSS,10,,Target Plaque 2,0,0.0,6,6.0,-6,-100,,51-71 DAYS,57,5,51,71,DAYS,,Y,,
BBC,BBC-10-149,149,10,146,ARM A,1,ARM A,1,Y,Y,Y,Y,13DEC2006,13MAR2007,N,Y,13MAR2007,91,,Week 12,12,Target Plaque 2 CPSS Score,TP2CPSS,10,,Target Plaque 2,0,0.0,6,6.0,-6,-100,,72-99 DAYS,85,6,72,99,DAYS,,Y,,
BBC,BBC-10-149,149,10,147,ARM A,1,ARM A,1,Y,Y,Y,Y,13DEC2006,13MAR2007,N,Y,16APR2007,125,,Week 16,16,Target Plaque 2 CPSS Score,TP2CPSS,10,,Target Plaque 2,0,0.0,6,6.0,-6,-100,,22-36 DAYS POST-LAST-DOSE,119,6,112,126,DAYS,,,,
BBC,BBC-10-149,149,10,144,ARM A,1,ARM A,1,Y,Y,Y,Y,13DEC2006,13MAR2007,N,Y,26JAN2007,45,,Week 6,6,Target Plaque 2 CPSS Best Score During Treatment,TP2BEST,11,DERIVED,Target Plaque 2,-6,-6.0,,,,,,,,,,,,,Y,Improved During Treatment,Y
BBC,BBC-10-149,149,10,147,ARM A,1,ARM A,1,Y,Y,Y,Y,13DEC2006,13MAR2007,N,Y,,,,,,Target Plaque 2 CPSS Relapse at Week 16,TP2RLPS,12,DERIVED,Target Plaque 2,,N,,,-6,-100,,,,,,,,,,,
BBC,BBC-10-149,149,10,,ARM A,1,ARM A,1,Y,Y,Y,Y,13DEC2006,13MAR2007,N,Y,13DEC2006,1,,Day 1 Baseline,0,Average Erythema Severity Score,AVGERY,13,DERIVED,Average,2,2.0,2,2.0,,,,,,,,,,Y,Y,,
BBC,BBC-10-149,149,10,,ARM A,1,ARM A,1,Y,Y,Y,Y,13DEC2006,13MAR2007,N,Y,29DEC2006,17,,Week 2,2,Average Erythema Severity Score,AVGERY,13,DERIVED,Average,2,2.0,2,2.0,0,0,,8-22 DAYS,15,2,8,22,DAYS,,Y,,
BBC,BBC-10-149,149,10,,ARM A,1,ARM A,1,Y,Y,Y,Y,13DEC2006,13MAR2007,N,Y,12JAN2007,31,,Week 4,4,Average Erythema Severity Score,AVGERY,13,DERIVED,Average,1,1.0,2,2.0,-1,-50,,23-36 DAYS,29,2,23,36,DAYS,,Y,,
BBC,BBC-10-149,149,10,,ARM A,1,ARM A,1,Y,Y,Y,Y,13DEC2006,13MAR2007,N,Y,26JAN2007,45,,Week 6,6,Average Erythema Severity Score,AVGERY,13,DERIVED,Average,0,0.0,2,2.0,-2,-100,,37-50 DAYS,43,2,37,50,DAYS,,Y,,
BBC,BBC-10-149,149,10,,ARM A,1,ARM A,1,Y,Y,Y,Y,13DEC2006,13MAR2007,N,Y,12FEB2007,62,,Week 8,8,Average Erythema Severity Score,AVGERY,13,DERIVED,Average,0,0.0,2,2.0,-2,-100,,51-71 DAYS,57,5,51,71,DAYS,,Y,,
BBC,BBC-10-149,149,10,,ARM A,1,ARM A,1,Y,Y,Y,Y,13DEC2006,13MAR2007,N,Y,13MAR2007,91,,Week 12,12,Average Erythema Severity Score,AVGERY,13,DERIVED,Average,0,0.0,2,2.0,-2,-100,,72-99 DAYS,85,6,72,99,DAYS,,Y,,
BBC,BBC-10-149,149,10,,ARM A,1,ARM A,1,Y,Y,Y,Y,13DEC2006,13MAR2007,N,Y,16APR2007,125,,Week 16,16,Average Erythema Severity Score,AVGERY,13,DERIVED,Average,0,0.0,2,2.0,-2,-100,,22-36 DAYS POST-LAST-DOSE,119,6,112,126,DAYS,,,,
BBC,BBC-10-149,149,10,,ARM A,1,ARM A,1,Y,Y,Y,Y,13DEC2006,13MAR2007,N,Y,13DEC2006,1,,Day 1 Baseline,0,Average Induration (Elevation) Severity Score,AVGIND,14,DERIVED,Average,2,2.0,2,2.0,,,,,,,,,,Y,Y,,
BBC,BBC-10-149,149,10,,ARM A,1,ARM A,1,Y,Y,Y,Y,13DEC2006,13MAR2007,N,Y,29DEC2006,17,,Week 2,2,Average Induration (Elevation) Severity Score,AVGIND,14,DERIVED,Average,2,2.0,2,2.0,0,0,,8-22 DAYS,15,2,8,22,DAYS,,Y,,
BBC,BBC-10-149,149,10,,ARM A,1,ARM A,1,Y,Y,Y,Y,13DEC2006,13MAR2007,N,Y,12JAN2007,31,,Week 4,4,Average Induration (Elevation) Severity Score,AVGIND,14,DERIVED,Average,2,2.0,2,2.0,0,0,,23-36 DAYS,29,2,23,36,DAYS,,Y,,
BBC,BBC-10-149,149,10,,ARM A,1,ARM A,1,Y,Y,Y,Y,13DEC2006,13MAR2007,N,Y,26JAN2007,45,,Week 6,6,Average Induration (Elevation) Severity Score,AVGIND,14,DERIVED,Average,0.5,0.5,2,2.0,-1.5,-100,,37-50 DAYS,43,2,37,50,DAYS,,Y,,
BBC,BBC-10-149,149,10,,ARM A,1,ARM A,1,Y,Y,Y,Y,13DEC2006,13MAR2007,N,Y,12FEB2007,62,,Week 8,8,Average Induration (Elevation) Severity Score,AVGIND,14,DERIVED,Average,0.5,0.5,2,2.0,-1.5,-100,,51-71 DAYS,57,5,51,71,DAYS,,Y,,
BBC,BBC-10-149,149,10,,ARM A,1,ARM A,1,Y,Y,Y,Y,13DEC2006,13MAR2007,N,Y,13MAR2007,91,,Week 12,12,Average Induration (Elevation) Severity Score,AVGIND,14,DERIVED,Average,0,0.0,2,2.0,-2,-100,,72-99 DAYS,85,6,72,99,DAYS,,Y,,
BBC,BBC-10-149,149,10,,ARM A,1,ARM A,1,Y,Y,Y,Y,13DEC2006,13MAR2007,N,Y,16APR2007,125,,Week 16,16,Average Induration (Elevation) Severity Score,AVGIND,14,DERIVED,Average,0,0.0,2,2.0,-2,-100,,22-36 DAYS POST-LAST-DOSE,119,6,112,126,DAYS,,,,
BBC,BBC-10-149,149,10,,ARM A,1,ARM A,1,Y,Y,Y,Y,13DEC2006,13MAR2007,N,Y,13DEC2006,1,,Day 1 Baseline,0,Average Scaling Severity Score,AVGSCAL,15,DERIVED,Average,2,2.0,2,2.0,,,,,,,,,,Y,Y,,
BBC,BBC-10-149,149,10,,ARM A,1,ARM A,1,Y,Y,Y,Y,13DEC2006,13MAR2007,N,Y,29DEC2006,17,,Week 2,2,Average Scaling Severity Score,AVGSCAL,15,DERIVED,Average,2,2.0,2,2.0,0,0,,8-22 DAYS,15,2,8,22,DAYS,,Y,,
BBC,BBC-10-149,149,10,,ARM A,1,ARM A,1,Y,Y,Y,Y,13DEC2006,13MAR2007,N,Y,12JAN2007,31,,Week 4,4,Average Scaling Severity Score,AVGSCAL,15,DERIVED,Average,2,2.0,2,2.0,0,0,,23-36 DAYS,29,2,23,36,DAYS,,Y,,
BBC,BBC-10-149,149,10,,ARM A,1,ARM A,1,Y,Y,Y,Y,13DEC2006,13MAR2007,N,Y,26JAN2007,45,,Week 6,6,Average Scaling Severity Score,AVGSCAL,15,DERIVED,Average,1,1.0,2,2.0,-1,-100,,37-50 DAYS,43,2,37,50,DAYS,,Y,,
BBC,BBC-10-149,149,10,,ARM A,1,ARM A,1,Y,Y,Y,Y,13DEC2006,13MAR2007,N,Y,12FEB2007,62,,Week 8,8,Average Scaling Severity Score,AVGSCAL,15,DERIVED,Average,0.5,0.5,2,2.0,-1.5,-100,,51-71 DAYS,57,5,51,71,DAYS,,Y,,
BBC,BBC-10-149,149,10,,ARM A,1,ARM A,1,Y,Y,Y,Y,13DEC2006,13MAR2007,N,Y,13MAR2007,91,,Week 12,12,Average Scaling Severity Score,AVGSCAL,15,DERIVED,Average,0,0.0,2,2.0,-2,-100,,72-99 DAYS,85,6,72,99,DAYS,,Y,,
BBC,BBC-10-149,149,10,,ARM A,1,ARM A,1,Y,Y,Y,Y,13DEC2006,13MAR2007,N,Y,16APR2007,125,,Week 16,16,Average Scaling Severity Score,AVGSCAL,15,DERIVED,Average,0.5,0.5,2,2.0,-1.5,-100,,22-36 DAYS POST-LAST-DOSE,119,6,112,126,DAYS,,,,
BBC,BBC-10-149,149,10,,ARM A,1,ARM A,1,Y,Y,Y,Y,13DEC2006,13MAR2007,N,Y,13DEC2006,1,,Day 1 Baseline,0,Average CPSS Score,AVGCPSS,16,DERIVED,Average,6,6.0,6,6.0,,,,,,,,,,Y,Y,,
BBC,BBC-10-149,149,10,,ARM A,1,ARM A,1,Y,Y,Y,Y,13DEC2006,13MAR2007,N,Y,29DEC2006,17,,Week 2,2,Average CPSS Score,AVGCPSS,16,DERIVED,Average,6,6.0,6,6.0,0,0,,8-22 DAYS,15,2,8,22,DAYS,,Y,,
BBC,BBC-10-149,149,10,,ARM A,1,ARM A,1,Y,Y,Y,Y,13DEC2006,13MAR2007,N,Y,12JAN2007,31,,Week 4,4,Average CPSS Score,AVGCPSS,16,DERIVED,Average,5,5.0,6,6.0,-1,-16.7,,23-36 DAYS,29,2,23,36,DAYS,,Y,,
BBC,BBC-10-149,149,10,,ARM A,1,ARM A,1,Y,Y,Y,Y,13DEC2006,13MAR2007,N,Y,26JAN2007,45,,Week 6,6,Average CPSS Score,AVGCPSS,16,DERIVED,Average,1.5,1.5,6,6.0,-4.5,-100,,37-50 DAYS,43,2,37,50,DAYS,,Y,,
BBC,BBC-10-149,149,10,,ARM A,1,ARM A,1,Y,Y,Y,Y,13DEC2006,13MAR2007,N,Y,12FEB2007,62,,Week 8,8,Average CPSS Score,AVGCPSS,16,DERIVED,Average,1,1.0,6,6.0,-5,-100,,51-71 DAYS,57,5,51,71,DAYS,,Y,,
BBC,BBC-10-149,149,10,,ARM A,1,ARM A,1,Y,Y,Y,Y,13DEC2006,13MAR2007,N,Y,13MAR2007,91,,Week 12,12,Average CPSS Score,AVGCPSS,16,DERIVED,Average,0,0.0,6,6.0,-6,-100,,72-99 DAYS,85,6,72,99,DAYS,,Y,,
BBC,BBC-10-149,149,10,,ARM A,1,ARM A,1,Y,Y,Y,Y,13DEC2006,13MAR2007,N,Y,16APR2007,125,,Week 16,16,Average CPSS Score,AVGCPSS,16,DERIVED,Average,0.5,0.5,6,6.0,-5.5,-100,,22-36 DAYS POST-LAST-DOSE,119,6,112,126,DAYS,,,,
BBC,BBC-10-149,149,10,,ARM A,1,ARM A,1,Y,Y,Y,Y,13DEC2006,13MAR2007,N,Y,26JAN2007,45,,Week 6,6,Average CPSS Best Score During Treatment,AVGBEST,17,DERIVED,Average,-6,-6.0,,0.0,,,,,,,,,,,Y,Improved During Treatment,Y
BBC,BBC-10-149,149,10,,ARM A,1,ARM A,1,Y,Y,Y,Y,13DEC2006,13MAR2007,N,Y,,,,,,Average CPSS Relapse at Week 16,AVGRLPS,18,DERIVED,Average,,N,,0.0,-5.5,-100,,,,,,,,,,,
BBC,BBC-10-150,150,10,113,ARM D,4,ARM D,4,Y,Y,Y,Y,14DEC2006,13MAR2007,N,Y,14DEC2006,1,,Day 1 Baseline,0,Target Plaque 1 Erythema Severity Score,TP1ERY,1,,Target Plaque 1,3,3.0,3,3.0,,,,,,,,,,Y,Y,,
BBC,BBC-10-150,150,10,114,ARM D,4,ARM D,4,Y,Y,Y,Y,14DEC2006,13MAR2007,N,Y,04JAN2007,22,,Week 2,2,Target Plaque 1 Erythema Severity Score,TP1ERY,1,,Target Plaque 1,3,3.0,3,3.0,0,0,,8-22 DAYS,15,7,8,22,DAYS,,Y,,
BBC,BBC-10-150,150,10,115,ARM D,4,ARM D,4,Y,Y,Y,Y,14DEC2006,13MAR2007,N,Y,16JAN2007,34,,Week 4,4,Target Plaque 1 Erythema Severity Score,TP1ERY,1,,Target Plaque 1,4,4.0,3,3.0,1,33.3,,23-36 DAYS,29,5,23,36,DAYS,,Y,,
BBC,BBC-10-150,150,10,116,ARM D,4,ARM D,4,Y,Y,Y,Y,14DEC2006,13MAR2007,N,Y,30JAN2007,48,,Week 6,6,Target Plaque 1 Erythema Severity Score,TP1ERY,1,,Target Plaque 1,3,3.0,3,3.0,0,0,,37-50 DAYS,43,5,37,50,DAYS,,Y,,
BBC,BBC-10-150,150,10,117,ARM D,4,ARM D,4,Y,Y,Y,Y,14DEC2006,13MAR2007,N,Y,07FEB2007,56,,Week 8,8,Target Plaque 1 Erythema Severity Score,TP1ERY,1,,Target Plaque 1,3,3.0,3,3.0,0,0,,51-71 DAYS,57,1,51,71,DAYS,,Y,,
BBC,BBC-10-150,150,10,118,ARM D,4,ARM D,4,Y,Y,Y,Y,14DEC2006,13MAR2007,N,Y,13MAR2007,90,,Week 12,12,Target Plaque 1 Erythema Severity Score,TP1ERY,1,,Target Plaque 1,3,3.0,3,3.0,0,0,,72-99 DAYS,85,5,72,99,DAYS,,Y,,
BBC,BBC-10-150,150,10,119,ARM D,4,ARM D,4,Y,Y,Y,Y,14DEC2006,13MAR2007,N,Y,17APR2007,125,,Week 16,16,Target Plaque 1 Erythema Severity Score,TP1ERY,1,,Target Plaque 1,3,3.0,3,3.0,0,0,,22-36 DAYS POST-LAST-DOSE,118,7,111,125,DAYS,,,,
BBC,BBC-10-150,150,10,120,ARM D,4,ARM D,4,Y,Y,Y,Y,14DEC2006,13MAR2007,N,Y,14DEC2006,1,,Day 1 Baseline,0,Target Plaque 1 Induration (Elevation) Severity Score,TP1IND,2,,Target Plaque 1,2,2.0,2,2.0,,,,,,,,,,Y,Y,,
BBC,BBC-10-150,150,10,121,ARM D,4,ARM D,4,Y,Y,Y,Y,14DEC2006,13MAR2007,N,Y,04JAN2007,22,,Week 2,2,Target Plaque 1 Induration (Elevation) Severity Score,TP1IND,2,,Target Plaque 1,3,3.0,2,2.0,1,50,,8-22 DAYS,15,7,8,22,DAYS,,Y,,
BBC,BBC-10-150,150,10,122,ARM D,4,ARM D,4,Y,Y,Y,Y,14DEC2006,13MAR2007,N,Y,16JAN2007,34,,Week 4,4,Target Plaque 1 Induration (Elevation) Severity Score,TP1IND,2,,Target Plaque 1,3,3.0,2,2.0,1,50,,23-36 DAYS,29,5,23,36,DAYS,,Y,,
BBC,BBC-10-150,150,10,123,ARM D,4,ARM D,4,Y,Y,Y,Y,14DEC2006,13MAR2007,N,Y,30JAN2007,48,,Week 6,6,Target Plaque 1 Induration (Elevation) Severity Score,TP1IND,2,,Target Plaque 1,2,2.0,2,2.0,0,0,,37-50 DAYS,43,5,37,50,DAYS,,Y,,
BBC,BBC-10-150,150,10,124,ARM D,4,ARM D,4,Y,Y,Y,Y,14DEC2006,13MAR2007,N,Y,07FEB2007,56,,Week 8,8,Target Plaque 1 Induration (Elevation) Severity Score,TP1IND,2,,Target Plaque 1,3,3.0,2,2.0,1,50,,51-71 DAYS,57,1,51,71,DAYS,,Y,,
BBC,BBC-10-150,150,10,125,ARM D,4,ARM D,4,Y,Y,Y,Y,14DEC2006,13MAR2007,N,Y,13MAR2007,90,,Week 12,12,Target Plaque 1 Induration (Elevation) Severity Score,TP1IND,2,,Target Plaque 1,4,4.0,2,2.0,2,100,,72-99 DAYS,85,5,72,99,DAYS,,Y,,
BBC,BBC-10-150,150,10,126,ARM D,4,ARM D,4,Y,Y,Y,Y,14DEC2006,13MAR2007,N,Y,17APR2007,125,,Week 16,16,Target Plaque 1 Induration (Elevation) Severity Score,TP1IND,2,,Target Plaque 1,2,2.0,2,2.0,0,0,,22-36 DAYS POST-LAST-DOSE,118,7,111,125,DAYS,,,,
BBC,BBC-10-150,150,10,127,ARM D,4,ARM D,4,Y,Y,Y,Y,14DEC2006,13MAR2007,N,Y,14DEC2006,1,,Day 1 Baseline,0,Target Plaque 1 Scaling Severity Score,TP1SCAL,3,,Target Plaque 1,3,3.0,3,3.0,,,,,,,,,,Y,Y,,
BBC,BBC-10-150,150,10,128,ARM D,4,ARM D,4,Y,Y,Y,Y,14DEC2006,13MAR2007,N,Y,04JAN2007,22,,Week 2,2,Target Plaque 1 Scaling Severity Score,TP1SCAL,3,,Target Plaque 1,3,3.0,3,3.0,0,0,,8-22 DAYS,15,7,8,22,DAYS,,Y,,
BBC,BBC-10-150,150,10,129,ARM D,4,ARM D,4,Y,Y,Y,Y,14DEC2006,13MAR2007,N,Y,16JAN2007,34,,Week 4,4,Target Plaque 1 Scaling Severity Score,TP1SCAL,3,,Target Plaque 1,4,4.0,3,3.0,1,33.3,,23-36 DAYS,29,5,23,36,DAYS,,Y,,
BBC,BBC-10-150,150,10,130,ARM D,4,ARM D,4,Y,Y,Y,Y,14DEC2006,13MAR2007,N,Y,30JAN2007,48,,Week 6,6,Target Plaque 1 Scaling Severity Score,TP1SCAL,3,,Target Plaque 1,3,3.0,3,3.0,0,0,,37-50 DAYS,43,5,37,50,DAYS,,Y,,
BBC,BBC-10-150,150,10,131,ARM D,4,ARM D,4,Y,Y,Y,Y,14DEC2006,13MAR2007,N,Y,07FEB2007,56,,Week 8,8,Target Plaque 1 Scaling Severity Score,TP1SCAL,3,,Target Plaque 1,3,3.0,3,3.0,0,0,,51-71 DAYS,57,1,51,71,DAYS,,Y,,
BBC,BBC-10-150,150,10,132,ARM D,4,ARM D,4,Y,Y,Y,Y,14DEC2006,13MAR2007,N,Y,13MAR2007,90,,Week 12,12,Target Plaque 1 Scaling Severity Score,TP1SCAL,3,,Target Plaque 1,4,4.0,3,3.0,1,33.3,,72-99 DAYS,85,5,72,99,DAYS,,Y,,
BBC,BBC-10-150,150,10,133,ARM D,4,ARM D,4,Y,Y,Y,Y,14DEC2006,13MAR2007,N,Y,17APR2007,125,,Week 16,16,Target Plaque 1 Scaling Severity Score,TP1SCAL,3,,Target Plaque 1,3,3.0,3,3.0,0,0,,22-36 DAYS POST-LAST-DOSE,118,7,111,125,DAYS,,,,
BBC,BBC-10-150,150,10,106,ARM D,4,ARM D,4,Y,Y,Y,Y,14DEC2006,13MAR2007,N,Y,14DEC2006,1,,Day 1 Baseline,0,Target Plaque 1 CPSS Score,TP1CPSS,4,,Target Plaque 1,8,8.0,8,8.0,,,,,,,,,,Y,Y,,
BBC,BBC-10-150,150,10,107,ARM D,4,ARM D,4,Y,Y,Y,Y,14DEC2006,13MAR2007,N,Y,04JAN2007,22,,Week 2,2,Target Plaque 1 CPSS Score,TP1CPSS,4,,Target Plaque 1,9,9.0,8,8.0,1,12.5,,8-22 DAYS,15,7,8,22,DAYS,,Y,,
BBC,BBC-10-150,150,10,108,ARM D,4,ARM D,4,Y,Y,Y,Y,14DEC2006,13MAR2007,N,Y,16JAN2007,34,,Week 4,4,Target Plaque 1 CPSS Score,TP1CPSS,4,,Target Plaque 1,11,11.0,8,8.0,3,37.5,,23-36 DAYS,29,5,23,36,DAYS,,Y,,
BBC,BBC-10-150,150,10,109,ARM D,4,ARM D,4,Y,Y,Y,Y,14DEC2006,13MAR2007,N,Y,30JAN2007,48,,Week 6,6,Target Plaque 1 CPSS Score,TP1CPSS,4,,Target Plaque 1,8,8.0,8,8.0,0,0,,37-50 DAYS,43,5,37,50,DAYS,,Y,,
BBC,BBC-10-150,150,10,110,ARM D,4,ARM D,4,Y,Y,Y,Y,14DEC2006,13MAR2007,N,Y,07FEB2007,56,,Week 8,8,Target Plaque 1 CPSS Score,TP1CPSS,4,,Target Plaque 1,9,9.0,8,8.0,1,12.5,,51-71 DAYS,57,1,51,71,DAYS,,Y,,
BBC,BBC-10-150,150,10,111,ARM D,4,ARM D,4,Y,Y,Y,Y,14DEC2006,13MAR2007,N,Y,13MAR2007,90,,Week 12,12,Target Plaque 1 CPSS Score,TP1CPSS,4,,Target Plaque 1,11,11.0,8,8.0,3,37.5,,72-99 DAYS,85,5,72,99,DAYS,,Y,,
BBC,BBC-10-150,150,10,112,ARM D,4,ARM D,4,Y,Y,Y,Y,14DEC2006,13MAR2007,N,Y,17APR2007,125,,Week 16,16,Target Plaque 1 CPSS Score,TP1CPSS,4,,Target Plaque 1,8,8.0,8,8.0,0,0,,22-36 DAYS POST-LAST-DOSE,118,7,111,125,DAYS,,,,
BBC,BBC-10-150,150,10,109,ARM D,4,ARM D,4,Y,Y,Y,Y,14DEC2006,13MAR2007,N,Y,30JAN2007,48,,Week 6,6,Target Plaque 1 CPSS Best Score During Treatment,TP1BEST,5,DERIVED,Target Plaque 1,0,0.0,,,,,,,,,,,,,Y,Improved During Treatment,N
BBC,BBC-10-150,150,10,148,ARM D,4,ARM D,4,Y,Y,Y,Y,14DEC2006,13MAR2007,N,Y,14DEC2006,1,,Day 1 Baseline,0,Target Plaque 2 Erythema Severity Score,TP2ERY,7,,Target Plaque 2,3,3.0,3,3.0,,,,,,,,,,Y,Y,,
BBC,BBC-10-150,150,10,149,ARM D,4,ARM D,4,Y,Y,Y,Y,14DEC2006,13MAR2007,N,Y,04JAN2007,22,,Week 2,2,Target Plaque 2 Erythema Severity Score,TP2ERY,7,,Target Plaque 2,3,3.0,3,3.0,0,0,,8-22 DAYS,15,7,8,22,DAYS,,Y,,
BBC,BBC-10-150,150,10,150,ARM D,4,ARM D,4,Y,Y,Y,Y,14DEC2006,13MAR2007,N,Y,16JAN2007,34,,Week 4,4,Target Plaque 2 Erythema Severity Score,TP2ERY,7,,Target Plaque 2,4,4.0,3,3.0,1,33.3,,23-36 DAYS,29,5,23,36,DAYS,,Y,,
BBC,BBC-10-150,150,10,151,ARM D,4,ARM D,4,Y,Y,Y,Y,14DEC2006,13MAR2007,N,Y,30JAN2007,48,,Week 6,6,Target Plaque 2 Erythema Severity Score,TP2ERY,7,,Target Plaque 2,3,3.0,3,3.0,0,0,,37-50 DAYS,43,5,37,50,DAYS,,Y,,
BBC,BBC-10-150,150,10,152,ARM D,4,ARM D,4,Y,Y,Y,Y,14DEC2006,13MAR2007,N,Y,07FEB2007,56,,Week 8,8,Target Plaque 2 Erythema Severity Score,TP2ERY,7,,Target Plaque 2,3,3.0,3,3.0,0,0,,51-71 DAYS,57,1,51,71,DAYS,,Y,,
BBC,BBC-10-150,150,10,153,ARM D,4,ARM D,4,Y,Y,Y,Y,14DEC2006,13MAR2007,N,Y,13MAR2007,90,,Week 12,12,Target Plaque 2 Erythema Severity Score,TP2ERY,7,,Target Plaque 2,3,3.0,3,3.0,0,0,,72-99 DAYS,85,5,72,99,DAYS,,Y,,
BBC,BBC-10-150,150,10,154,ARM D,4,ARM D,4,Y,Y,Y,Y,14DEC2006,13MAR2007,N,Y,17APR2007,125,,Week 16,16,Target Plaque 2 Erythema Severity Score,TP2ERY,7,,Target Plaque 2,2,2.0,3,3.0,-1,-33.3,,22-36 DAYS POST-LAST-DOSE,118,7,111,125,DAYS,,,,
BBC,BBC-10-150,150,10,155,ARM D,4,ARM D,4,Y,Y,Y,Y,14DEC2006,13MAR2007,N,Y,14DEC2006,1,,Day 1 Baseline,0,Target Plaque 2 Induration (Elevation) Severity Score,TP2IND,8,,Target Plaque 2,2,2.0,2,2.0,,,,,,,,,,Y,Y,,
BBC,BBC-10-150,150,10,156,ARM D,4,ARM D,4,Y,Y,Y,Y,14DEC2006,13MAR2007,N,Y,04JAN2007,22,,Week 2,2,Target Plaque 2 Induration (Elevation) Severity Score,TP2IND,8,,Target Plaque 2,3,3.0,2,2.0,1,50,,8-22 DAYS,15,7,8,22,DAYS,,Y,,
BBC,BBC-10-150,150,10,157,ARM D,4,ARM D,4,Y,Y,Y,Y,14DEC2006,13MAR2007,N,Y,16JAN2007,34,,Week 4,4,Target Plaque 2 Induration (Elevation) Severity Score,TP2IND,8,,Target Plaque 2,3,3.0,2,2.0,1,50,,23-36 DAYS,29,5,23,36,DAYS,,Y,,
BBC,BBC-10-150,150,10,158,ARM D,4,ARM D,4,Y,Y,Y,Y,14DEC2006,13MAR2007,N,Y,30JAN2007,48,,Week 6,6,Target Plaque 2 Induration (Elevation) Severity Score,TP2IND,8,,Target Plaque 2,4,4.0,2,2.0,2,100,,37-50 DAYS,43,5,37,50,DAYS,,Y,,
BBC,BBC-10-150,150,10,159,ARM D,4,ARM D,4,Y,Y,Y,Y,14DEC2006,13MAR2007,N,Y,07FEB2007,56,,Week 8,8,Target Plaque 2 Induration (Elevation) Severity Score,TP2IND,8,,Target Plaque 2,3,3.0,2,2.0,1,50,,51-71 DAYS,57,1,51,71,DAYS,,Y,,
BBC,BBC-10-150,150,10,160,ARM D,4,ARM D,4,Y,Y,Y,Y,14DEC2006,13MAR2007,N,Y,13MAR2007,90,,Week 12,12,Target Plaque 2 Induration (Elevation) Severity Score,TP2IND,8,,Target Plaque 2,4,4.0,2,2.0,2,100,,72-99 DAYS,85,5,72,99,DAYS,,Y,,
BBC,BBC-10-150,150,10,161,ARM D,4,ARM D,4,Y,Y,Y,Y,14DEC2006,13MAR2007,N,Y,17APR2007,125,,Week 16,16,Target Plaque 2 Induration (Elevation) Severity Score,TP2IND,8,,Target Plaque 2,1,1.0,2,2.0,-1,-50,,22-36 DAYS POST-LAST-DOSE,118,7,111,125,DAYS,,,,
BBC,BBC-10-150,150,10,162,ARM D,4,ARM D,4,Y,Y,Y,Y,14DEC2006,13MAR2007,N,Y,14DEC2006,1,,Day 1 Baseline,0,Target Plaque 2 Scaling Severity Score,TP2SCAL,9,,Target Plaque 2,3,3.0,3,3.0,,,,,,,,,,Y,Y,,
BBC,BBC-10-150,150,10,163,ARM D,4,ARM D,4,Y,Y,Y,Y,14DEC2006,13MAR2007,N,Y,04JAN2007,22,,Week 2,2,Target Plaque 2 Scaling Severity Score,TP2SCAL,9,,Target Plaque 2,3,3.0,3,3.0,0,0,,8-22 DAYS,15,7,8,22,DAYS,,Y,,
BBC,BBC-10-150,150,10,164,ARM D,4,ARM D,4,Y,Y,Y,Y,14DEC2006,13MAR2007,N,Y,16JAN2007,34,,Week 4,4,Target Plaque 2 Scaling Severity Score,TP2SCAL,9,,Target Plaque 2,4,4.0,3,3.0,1,33.3,,23-36 DAYS,29,5,23,36,DAYS,,Y,,
BBC,BBC-10-150,150,10,165,ARM D,4,ARM D,4,Y,Y,Y,Y,14DEC2006,13MAR2007,N,Y,30JAN2007,48,,Week 6,6,Target Plaque 2 Scaling Severity Score,TP2SCAL,9,,Target Plaque 2,4,4.0,3,3.0,1,33.3,,37-50 DAYS,43,5,37,50,DAYS,,Y,,
BBC,BBC-10-150,150,10,166,ARM D,4,ARM D,4,Y,Y,Y,Y,14DEC2006,13MAR2007,N,Y,07FEB2007,56,,Week 8,8,Target Plaque 2 Scaling Severity Score,TP2SCAL,9,,Target Plaque 2,3,3.0,3,3.0,0,0,,51-71 DAYS,57,1,51,71,DAYS,,Y,,
BBC,BBC-10-150,150,10,167,ARM D,4,ARM D,4,Y,Y,Y,Y,14DEC2006,13MAR2007,N,Y,13MAR2007,90,,Week 12,12,Target Plaque 2 Scaling Severity Score,TP2SCAL,9,,Target Plaque 2,3,3.0,3,3.0,0,0,,72-99 DAYS,85,5,72,99,DAYS,,Y,,
BBC,BBC-10-150,150,10,168,ARM D,4,ARM D,4,Y,Y,Y,Y,14DEC2006,13MAR2007,N,Y,17APR2007,125,,Week 16,16,Target Plaque 2 Scaling Severity Score,TP2SCAL,9,,Target Plaque 2,2,2.0,3,3.0,-1,-33.3,,22-36 DAYS POST-LAST-DOSE,118,7,111,125,DAYS,,,,
BBC,BBC-10-150,150,10,141,ARM D,4,ARM D,4,Y,Y,Y,Y,14DEC2006,13MAR2007,N,Y,14DEC2006,1,,Day 1 Baseline,0,Target Plaque 2 CPSS Score,TP2CPSS,10,,Target Plaque 2,8,8.0,8,8.0,,,,,,,,,,Y,Y,,
BBC,BBC-10-150,150,10,142,ARM D,4,ARM D,4,Y,Y,Y,Y,14DEC2006,13MAR2007,N,Y,04JAN2007,22,,Week 2,2,Target Plaque 2 CPSS Score,TP2CPSS,10,,Target Plaque 2,9,9.0,8,8.0,1,12.5,,8-22 DAYS,15,7,8,22,DAYS,,Y,,
BBC,BBC-10-150,150,10,143,ARM D,4,ARM D,4,Y,Y,Y,Y,14DEC2006,13MAR2007,N,Y,16JAN2007,34,,Week 4,4,Target Plaque 2 CPSS Score,TP2CPSS,10,,Target Plaque 2,11,11.0,8,8.0,3,37.5,,23-36 DAYS,29,5,23,36,DAYS,,Y,,
BBC,BBC-10-150,150,10,144,ARM D,4,ARM D,4,Y,Y,Y,Y,14DEC2006,13MAR2007,N,Y,30JAN2007,48,,Week 6,6,Target Plaque 2 CPSS Score,TP2CPSS,10,,Target Plaque 2,11,11.0,8,8.0,3,37.5,,37-50 DAYS,43,5,37,50,DAYS,,Y,,
BBC,BBC-10-150,150,10,145,ARM D,4,ARM D,4,Y,Y,Y,Y,14DEC2006,13MAR2007,N,Y,07FEB2007,56,,Week 8,8,Target Plaque 2 CPSS Score,TP2CPSS,10,,Target Plaque 2,9,9.0,8,8.0,1,12.5,,51-71 DAYS,57,1,51,71,DAYS,,Y,,
BBC,BBC-10-150,150,10,146,ARM D,4,ARM D,4,Y,Y,Y,Y,14DEC2006,13MAR2007,N,Y,13MAR2007,90,,Week 12,12,Target Plaque 2 CPSS Score,TP2CPSS,10,,Target Plaque 2,10,10.0,8,8.0,2,25,,72-99 DAYS,85,5,72,99,DAYS,,Y,,
BBC,BBC-10-150,150,10,147,ARM D,4,ARM D,4,Y,Y,Y,Y,14DEC2006,13MAR2007,N,Y,17APR2007,125,,Week 16,16,Target Plaque 2 CPSS Score,TP2CPSS,10,,Target Plaque 2,5,5.0,8,8.0,-3,-37.5,,22-36 DAYS POST-LAST-DOSE,118,7,111,125,DAYS,,,,
BBC,BBC-10-150,150,10,142,ARM D,4,ARM D,4,Y,Y,Y,Y,14DEC2006,13MAR2007,N,Y,04JAN2007,22,,Week 2,2,Target Plaque 2 CPSS Best Score During Treatment,TP2BEST,11,DERIVED,Target Plaque 2,1,1.0,,,,,,,,,,,,,Y,Improved During Treatment,N
BBC,BBC-10-150,150,10,,ARM D,4,ARM D,4,Y,Y,Y,Y,14DEC2006,13MAR2007,N,Y,14DEC2006,1,,Day 1 Baseline,0,Average Erythema Severity Score,AVGERY,13,DERIVED,Average,3,3.0,3,3.0,,,,,,,,,,Y,Y,,
BBC,BBC-10-150,150,10,,ARM D,4,ARM D,4,Y,Y,Y,Y,14DEC2006,13MAR2007,N,Y,04JAN2007,22,,Week 2,2,Average Erythema Severity Score,AVGERY,13,DERIVED,Average,3,3.0,3,3.0,0,0,,8-22 DAYS,15,7,8,22,DAYS,,Y,,
BBC,BBC-10-150,150,10,,ARM D,4,ARM D,4,Y,Y,Y,Y,14DEC2006,13MAR2007,N,Y,16JAN2007,34,,Week 4,4,Average Erythema Severity Score,AVGERY,13,DERIVED,Average,4,4.0,3,3.0,1,33.3,,23-36 DAYS,29,5,23,36,DAYS,,Y,,
BBC,BBC-10-150,150,10,,ARM D,4,ARM D,4,Y,Y,Y,Y,14DEC2006,13MAR2007,N,Y,30JAN2007,48,,Week 6,6,Average Erythema Severity Score,AVGERY,13,DERIVED,Average,3,3.0,3,3.0,0,0,,37-50 DAYS,43,5,37,50,DAYS,,Y,,
BBC,BBC-10-150,150,10,,ARM D,4,ARM D,4,Y,Y,Y,Y,14DEC2006,13MAR2007,N,Y,07FEB2007,56,,Week 8,8,Average Erythema Severity Score,AVGERY,13,DERIVED,Average,3,3.0,3,3.0,0,0,,51-71 DAYS,57,1,51,71,DAYS,,Y,,
BBC,BBC-10-150,150,10,,ARM D,4,ARM D,4,Y,Y,Y,Y,14DEC2006,13MAR2007,N,Y,13MAR2007,90,,Week 12,12,Average Erythema Severity Score,AVGERY,13,DERIVED,Average,3,3.0,3,3.0,0,0,,72-99 DAYS,85,5,72,99,DAYS,,Y,,
BBC,BBC-10-150,150,10,,ARM D,4,ARM D,4,Y,Y,Y,Y,14DEC2006,13MAR2007,N,Y,17APR2007,125,,Week 16,16,Average Erythema Severity Score,AVGERY,13,DERIVED,Average,2.5,2.5,3,3.0,-0.5,-33.3,,22-36 DAYS POST-LAST-DOSE,118,7,111,125,DAYS,,,,
BBC,BBC-10-150,150,10,,ARM D,4,ARM D,4,Y,Y,Y,Y,14DEC2006,13MAR2007,N,Y,14DEC2006,1,,Day 1 Baseline,0,Average Induration (Elevation) Severity Score,AVGIND,14,DERIVED,Average,2,2.0,2,2.0,,,,,,,,,,Y,Y,,
BBC,BBC-10-150,150,10,,ARM D,4,ARM D,4,Y,Y,Y,Y,14DEC2006,13MAR2007,N,Y,04JAN2007,22,,Week 2,2,Average Induration (Elevation) Severity Score,AVGIND,14,DERIVED,Average,3,3.0,2,2.0,1,50,,8-22 DAYS,15,7,8,22,DAYS,,Y,,
BBC,BBC-10-150,150,10,,ARM D,4,ARM D,4,Y,Y,Y,Y,14DEC2006,13MAR2007,N,Y,16JAN2007,34,,Week 4,4,Average Induration (Elevation) Severity Score,AVGIND,14,DERIVED,Average,3,3.0,2,2.0,1,50,,23-36 DAYS,29,5,23,36,DAYS,,Y,,
BBC,BBC-10-150,150,10,,ARM D,4,ARM D,4,Y,Y,Y,Y,14DEC2006,13MAR2007,N,Y,30JAN2007,48,,Week 6,6,Average Induration (Elevation) Severity Score,AVGIND,14,DERIVED,Average,3,3.0,2,2.0,1,100,,37-50 DAYS,43,5,37,50,DAYS,,Y,,
BBC,BBC-10-150,150,10,,ARM D,4,ARM D,4,Y,Y,Y,Y,14DEC2006,13MAR2007,N,Y,07FEB2007,56,,Week 8,8,Average Induration (Elevation) Severity Score,AVGIND,14,DERIVED,Average,3,3.0,2,2.0,1,50,,51-71 DAYS,57,1,51,71,DAYS,,Y,,
BBC,BBC-10-150,150,10,,ARM D,4,ARM D,4,Y,Y,Y,Y,14DEC2006,13MAR2007,N,Y,13MAR2007,90,,Week 12,12,Average Induration (Elevation) Severity Score,AVGIND,14,DERIVED,Average,4,4.0,2,2.0,2,100,,72-99 DAYS,85,5,72,99,DAYS,,Y,,
BBC,BBC-10-150,150,10,,ARM D,4,ARM D,4,Y,Y,Y,Y,14DEC2006,13MAR2007,N,Y,17APR2007,125,,Week 16,16,Average Induration (Elevation) Severity Score,AVGIND,14,DERIVED,Average,1.5,1.5,2,2.0,-0.5,-50,,22-36 DAYS POST-LAST-DOSE,118,7,111,125,DAYS,,,,
BBC,BBC-10-150,150,10,,ARM D,4,ARM D,4,Y,Y,Y,Y,14DEC2006,13MAR2007,N,Y,14DEC2006,1,,Day 1 Baseline,0,Average Scaling Severity Score,AVGSCAL,15,DERIVED,Average,3,3.0,3,3.0,,,,,,,,,,Y,Y,,
BBC,BBC-10-150,150,10,,ARM D,4,ARM D,4,Y,Y,Y,Y,14DEC2006,13MAR2007,N,Y,04JAN2007,22,,Week 2,2,Average Scaling Severity Score,AVGSCAL,15,DERIVED,Average,3,3.0,3,3.0,0,0,,8-22 DAYS,15,7,8,22,DAYS,,Y,,
BBC,BBC-10-150,150,10,,ARM D,4,ARM D,4,Y,Y,Y,Y,14DEC2006,13MAR2007,N,Y,16JAN2007,34,,Week 4,4,Average Scaling Severity Score,AVGSCAL,15,DERIVED,Average,4,4.0,3,3.0,1,33.3,,23-36 DAYS,29,5,23,36,DAYS,,Y,,
BBC,BBC-10-150,150,10,,ARM D,4,ARM D,4,Y,Y,Y,Y,14DEC2006,13MAR2007,N,Y,30JAN2007,48,,Week 6,6,Average Scaling Severity Score,AVGSCAL,15,DERIVED,Average,3.5,3.5,3,3.0,0.5,33.3,,37-50 DAYS,43,5,37,50,DAYS,,Y,,
BBC,BBC-10-150,150,10,,ARM D,4,ARM D,4,Y,Y,Y,Y,14DEC2006,13MAR2007,N,Y,07FEB2007,56,,Week 8,8,Average Scaling Severity Score,AVGSCAL,15,DERIVED,Average,3,3.0,3,3.0,0,0,,51-71 DAYS,57,1,51,71,DAYS,,Y,,
BBC,BBC-10-150,150,10,,ARM D,4,ARM D,4,Y,Y,Y,Y,14DEC2006,13MAR2007,N,Y,13MAR2007,90,,Week 12,12,Average Scaling Severity Score,AVGSCAL,15,DERIVED,Average,3.5,3.5,3,3.0,0.5,0,,72-99 DAYS,85,5,72,99,DAYS,,Y,,
BBC,BBC-10-150,150,10,,ARM D,4,ARM D,4,Y,Y,Y,Y,14DEC2006,13MAR2007,N,Y,17APR2007,125,,Week 16,16,Average Scaling Severity Score,AVGSCAL,15,DERIVED,Average,2.5,2.5,3,3.0,-0.5,-33.3,,22-36 DAYS POST-LAST-DOSE,118,7,111,125,DAYS,,,,
BBC,BBC-10-150,150,10,,ARM D,4,ARM D,4,Y,Y,Y,Y,14DEC2006,13MAR2007,N,Y,14DEC2006,1,,Day 1 Baseline,0,Average CPSS Score,AVGCPSS,16,DERIVED,Average,8,8.0,8,8.0,,,,,,,,,,Y,Y,,
BBC,BBC-10-150,150,10,,ARM D,4,ARM D,4,Y,Y,Y,Y,14DEC2006,13MAR2007,N,Y,04JAN2007,22,,Week 2,2,Average CPSS Score,AVGCPSS,16,DERIVED,Average,9,9.0,8,8.0,1,12.5,,8-22 DAYS,15,7,8,22,DAYS,,Y,,
BBC,BBC-10-150,150,10,,ARM D,4,ARM D,4,Y,Y,Y,Y,14DEC2006,13MAR2007,N,Y,16JAN2007,34,,Week 4,4,Average CPSS Score,AVGCPSS,16,DERIVED,Average,11,11.0,8,8.0,3,37.5,,23-36 DAYS,29,5,23,36,DAYS,,Y,,
BBC,BBC-10-150,150,10,,ARM D,4,ARM D,4,Y,Y,Y,Y,14DEC2006,13MAR2007,N,Y,30JAN2007,48,,Week 6,6,Average CPSS Score,AVGCPSS,16,DERIVED,Average,9.5,9.5,8,8.0,1.5,37.5,,37-50 DAYS,43,5,37,50,DAYS,,Y,,
BBC,BBC-10-150,150,10,,ARM D,4,ARM D,4,Y,Y,Y,Y,14DEC2006,13MAR2007,N,Y,07FEB2007,56,,Week 8,8,Average CPSS Score,AVGCPSS,16,DERIVED,Average,9,9.0,8,8.0,1,12.5,,51-71 DAYS,57,1,51,71,DAYS,,Y,,
BBC,BBC-10-150,150,10,,ARM D,4,ARM D,4,Y,Y,Y,Y,14DEC2006,13MAR2007,N,Y,13MAR2007,90,,Week 12,12,Average CPSS Score,AVGCPSS,16,DERIVED,Average,10.5,10.5,8,8.0,2.5,25,,72-99 DAYS,85,5,72,99,DAYS,,Y,,
BBC,BBC-10-150,150,10,,ARM D,4,ARM D,4,Y,Y,Y,Y,14DEC2006,13MAR2007,N,Y,17APR2007,125,,Week 16,16,Average CPSS Score,AVGCPSS,16,DERIVED,Average,6.5,6.5,8,8.0,-1.5,-37.5,,22-36 DAYS POST-LAST-DOSE,118,7,111,125,DAYS,,,,
BBC,BBC-10-150,150,10,,ARM D,4,ARM D,4,Y,Y,Y,Y,14DEC2006,13MAR2007,N,Y,04JAN2007,22,,Week 2,2,Average CPSS Best Score During Treatment,AVGBEST,17,DERIVED,Average,0.5,0.5,,0.0,,,,,,,,,,,Y,Improved During Treatment,N
BBC,BBC-10-151,151,10,113,ARM B,2,ARM B,2,Y,Y,Y,Y,28DEC2006,22MAR2007,N,Y,28DEC2006,1,,Day 1 Baseline,0,Target Plaque 1 Erythema Severity Score,TP1ERY,1,,Target Plaque 1,3,3.0,3,3.0,,,,,,,,,,Y,Y,,
BBC,BBC-10-151,151,10,114,ARM B,2,ARM B,2,Y,Y,Y,Y,28DEC2006,22MAR2007,N,Y,12JAN2007,16,,Week 2,2,Target Plaque 1 Erythema Severity Score,TP1ERY,1,,Target Plaque 1,2,2.0,3,3.0,-1,-33.3,,8-22 DAYS,15,1,8,22,DAYS,,Y,,
BBC,BBC-10-151,151,10,115,ARM B,2,ARM B,2,Y,Y,Y,Y,28DEC2006,22MAR2007,N,Y,25JAN2007,29,,Week 4,4,Target Plaque 1 Erythema Severity Score,TP1ERY,1,,Target Plaque 1,2,2.0,3,3.0,-1,-33.3,,23-36 DAYS,29,0,23,36,DAYS,,Y,,
BBC,BBC-10-151,151,10,116,ARM B,2,ARM B,2,Y,Y,Y,Y,28DEC2006,22MAR2007,N,Y,08FEB2007,43,,Week 6,6,Target Plaque 1 Erythema Severity Score,TP1ERY,1,,Target Plaque 1,2,2.0,3,3.0,-1,-33.3,,37-50 DAYS,43,0,37,50,DAYS,,Y,,
BBC,BBC-10-151,151,10,117,ARM B,2,ARM B,2,Y,Y,Y,Y,28DEC2006,22MAR2007,N,Y,22FEB2007,57,,Week 8,8,Target Plaque 1 Erythema Severity Score,TP1ERY,1,,Target Plaque 1,2,2.0,3,3.0,-1,-33.3,,51-71 DAYS,57,0,51,71,DAYS,,Y,,
BBC,BBC-10-151,151,10,118,ARM B,2,ARM B,2,Y,Y,Y,Y,28DEC2006,22MAR2007,N,Y,22MAR2007,85,,Week 12,12,Target Plaque 1 Erythema Severity Score,TP1ERY,1,,Target Plaque 1,2,2.0,3,3.0,-1,-33.3,,72-99 DAYS,85,0,72,99,DAYS,,Y,,
BBC,BBC-10-151,151,10,119,ARM B,2,ARM B,2,Y,Y,Y,Y,28DEC2006,22MAR2007,N,Y,19APR2007,113,,Week 16,16,Target Plaque 1 Erythema Severity Score,TP1ERY,1,,Target Plaque 1,2,2.0,3,3.0,-1,-33.3,,22-36 DAYS POST-LAST-DOSE,113,0,106,120,DAYS,,,,
BBC,BBC-10-151,151,10,120,ARM B,2,ARM B,2,Y,Y,Y,Y,28DEC2006,22MAR2007,N,Y,28DEC2006,1,,Day 1 Baseline,0,Target Plaque 1 Induration (Elevation) Severity Score,TP1IND,2,,Target Plaque 1,3,3.0,3,3.0,,,,,,,,,,Y,Y,,
BBC,BBC-10-151,151,10,121,ARM B,2,ARM B,2,Y,Y,Y,Y,28DEC2006,22MAR2007,N,Y,12JAN2007,16,,Week 2,2,Target Plaque 1 Induration (Elevation) Severity Score,TP1IND,2,,Target Plaque 1,3,3.0,3,3.0,0,0,,8-22 DAYS,15,1,8,22,DAYS,,Y,,
BBC,BBC-10-151,151,10,122,ARM B,2,ARM B,2,Y,Y,Y,Y,28DEC2006,22MAR2007,N,Y,25JAN2007,29,,Week 4,4,Target Plaque 1 Induration (Elevation) Severity Score,TP1IND,2,,Target Plaque 1,3,3.0,3,3.0,0,0,,23-36 DAYS,29,0,23,36,DAYS,,Y,,
BBC,BBC-10-151,151,10,123,ARM B,2,ARM B,2,Y,Y,Y,Y,28DEC2006,22MAR2007,N,Y,08FEB2007,43,,Week 6,6,Target Plaque 1 Induration (Elevation) Severity Score,TP1IND,2,,Target Plaque 1,3,3.0,3,3.0,0,0,,37-50 DAYS,43,0,37,50,DAYS,,Y,,
BBC,BBC-10-151,151,10,124,ARM B,2,ARM B,2,Y,Y,Y,Y,28DEC2006,22MAR2007,N,Y,22FEB2007,57,,Week 8,8,Target Plaque 1 Induration (Elevation) Severity Score,TP1IND,2,,Target Plaque 1,2,2.0,3,3.0,-1,-33.3,,51-71 DAYS,57,0,51,71,DAYS,,Y,,
BBC,BBC-10-151,151,10,125,ARM B,2,ARM B,2,Y,Y,Y,Y,28DEC2006,22MAR2007,N,Y,22MAR2007,85,,Week 12,12,Target Plaque 1 Induration (Elevation) Severity Score,TP1IND,2,,Target Plaque 1,3,3.0,3,3.0,0,0,,72-99 DAYS,85,0,72,99,DAYS,,Y,,
BBC,BBC-10-151,151,10,126,ARM B,2,ARM B,2,Y,Y,Y,Y,28DEC2006,22MAR2007,N,Y,19APR2007,113,,Week 16,16,Target Plaque 1 Induration (Elevation) Severity Score,TP1IND,2,,Target Plaque 1,2,2.0,3,3.0,-1,-33.3,,22-36 DAYS POST-LAST-DOSE,113,0,106,120,DAYS,,,,
BBC,BBC-10-151,151,10,127,ARM B,2,ARM B,2,Y,Y,Y,Y,28DEC2006,22MAR2007,N,Y,28DEC2006,1,,Day 1 Baseline,0,Target Plaque 1 Scaling Severity Score,TP1SCAL,3,,Target Plaque 1,3,3.0,3,3.0,,,,,,,,,,Y,Y,,
BBC,BBC-10-151,151,10,128,ARM B,2,ARM B,2,Y,Y,Y,Y,28DEC2006,22MAR2007,N,Y,12JAN2007,16,,Week 2,2,Target Plaque 1 Scaling Severity Score,TP1SCAL,3,,Target Plaque 1,3,3.0,3,3.0,0,0,,8-22 DAYS,15,1,8,22,DAYS,,Y,,
BBC,BBC-10-151,151,10,129,ARM B,2,ARM B,2,Y,Y,Y,Y,28DEC2006,22MAR2007,N,Y,25JAN2007,29,,Week 4,4,Target Plaque 1 Scaling Severity Score,TP1SCAL,3,,Target Plaque 1,3,3.0,3,3.0,0,0,,23-36 DAYS,29,0,23,36,DAYS,,Y,,
BBC,BBC-10-151,151,10,130,ARM B,2,ARM B,2,Y,Y,Y,Y,28DEC2006,22MAR2007,N,Y,08FEB2007,43,,Week 6,6,Target Plaque 1 Scaling Severity Score,TP1SCAL,3,,Target Plaque 1,2,2.0,3,3.0,-1,-33.3,,37-50 DAYS,43,0,37,50,DAYS,,Y,,
BBC,BBC-10-151,151,10,131,ARM B,2,ARM B,2,Y,Y,Y,Y,28DEC2006,22MAR2007,N,Y,22FEB2007,57,,Week 8,8,Target Plaque 1 Scaling Severity Score,TP1SCAL,3,,Target Plaque 1,1,1.0,3,3.0,-2,-66.7,,51-71 DAYS,57,0,51,71,DAYS,,Y,,
BBC,BBC-10-151,151,10,132,ARM B,2,ARM B,2,Y,Y,Y,Y,28DEC2006,22MAR2007,N,Y,22MAR2007,85,,Week 12,12,Target Plaque 1 Scaling Severity Score,TP1SCAL,3,,Target Plaque 1,2,2.0,3,3.0,-1,-33.3,,72-99 DAYS,85,0,72,99,DAYS,,Y,,
BBC,BBC-10-151,151,10,133,ARM B,2,ARM B,2,Y,Y,Y,Y,28DEC2006,22MAR2007,N,Y,19APR2007,113,,Week 16,16,Target Plaque 1 Scaling Severity Score,TP1SCAL,3,,Target Plaque 1,4,4.0,3,3.0,1,33.3,,22-36 DAYS POST-LAST-DOSE,113,0,106,120,DAYS,,,,
BBC,BBC-10-151,151,10,106,ARM B,2,ARM B,2,Y,Y,Y,Y,28DEC2006,22MAR2007,N,Y,28DEC2006,1,,Day 1 Baseline,0,Target Plaque 1 CPSS Score,TP1CPSS,4,,Target Plaque 1,9,9.0,9,9.0,,,,,,,,,,Y,Y,,
BBC,BBC-10-151,151,10,107,ARM B,2,ARM B,2,Y,Y,Y,Y,28DEC2006,22MAR2007,N,Y,12JAN2007,16,,Week 2,2,Target Plaque 1 CPSS Score,TP1CPSS,4,,Target Plaque 1,8,8.0,9,9.0,-1,-11.1,,8-22 DAYS,15,1,8,22,DAYS,,Y,,
BBC,BBC-10-151,151,10,108,ARM B,2,ARM B,2,Y,Y,Y,Y,28DEC2006,22MAR2007,N,Y,25JAN2007,29,,Week 4,4,Target Plaque 1 CPSS Score,TP1CPSS,4,,Target Plaque 1,8,8.0,9,9.0,-1,-11.1,,23-36 DAYS,29,0,23,36,DAYS,,Y,,
BBC,BBC-10-151,151,10,109,ARM B,2,ARM B,2,Y,Y,Y,Y,28DEC2006,22MAR2007,N,Y,08FEB2007,43,,Week 6,6,Target Plaque 1 CPSS Score,TP1CPSS,4,,Target Plaque 1,7,7.0,9,9.0,-2,-22.2,,37-50 DAYS,43,0,37,50,DAYS,,Y,,
BBC,BBC-10-151,151,10,110,ARM B,2,ARM B,2,Y,Y,Y,Y,28DEC2006,22MAR2007,N,Y,22FEB2007,57,,Week 8,8,Target Plaque 1 CPSS Score,TP1CPSS,4,,Target Plaque 1,5,5.0,9,9.0,-4,-44.4,,51-71 DAYS,57,0,51,71,DAYS,,Y,,
BBC,BBC-10-151,151,10,111,ARM B,2,ARM B,2,Y,Y,Y,Y,28DEC2006,22MAR2007,N,Y,22MAR2007,85,,Week 12,12,Target Plaque 1 CPSS Score,TP1CPSS,4,,Target Plaque 1,7,7.0,9,9.0,-2,-22.2,,72-99 DAYS,85,0,72,99,DAYS,,Y,,
BBC,BBC-10-151,151,10,112,ARM B,2,ARM B,2,Y,Y,Y,Y,28DEC2006,22MAR2007,N,Y,19APR2007,113,,Week 16,16,Target Plaque 1 CPSS Score,TP1CPSS,4,,Target Plaque 1,8,8.0,9,9.0,-1,-11.1,,22-36 DAYS POST-LAST-DOSE,113,0,106,120,DAYS,,,,
BBC,BBC-10-151,151,10,110,ARM B,2,ARM B,2,Y,Y,Y,Y,28DEC2006,22MAR2007,N,Y,22FEB2007,57,,Week 8,8,Target Plaque 1 CPSS Best Score During Treatment,TP1BEST,5,DERIVED,Target Plaque 1,-4,-4.0,,,,,,,,,,,,,Y,Improved During Treatment,Y
BBC,BBC-10-151,151,10,112,ARM B,2,ARM B,2,Y,Y,Y,Y,28DEC2006,22MAR2007,N,Y,,,,,,Target Plaque 1 CPSS Relapse at Week 16,TP1RLPS,6,DERIVED,Target Plaque 1,,Y,,,-1,-11.1,,,,,,,,,,,
BBC,BBC-10-151,151,10,148,ARM B,2,ARM B,2,Y,Y,Y,Y,28DEC2006,22MAR2007,N,Y,28DEC2006,1,,Day 1 Baseline,0,Target Plaque 2 Erythema Severity Score,TP2ERY,7,,Target Plaque 2,3,3.0,3,3.0,,,,,,,,,,Y,Y,,
BBC,BBC-10-151,151,10,149,ARM B,2,ARM B,2,Y,Y,Y,Y,28DEC2006,22MAR2007,N,Y,12JAN2007,16,,Week 2,2,Target Plaque 2 Erythema Severity Score,TP2ERY,7,,Target Plaque 2,2,2.0,3,3.0,-1,-33.3,,8-22 DAYS,15,1,8,22,DAYS,,Y,,
BBC,BBC-10-151,151,10,150,ARM B,2,ARM B,2,Y,Y,Y,Y,28DEC2006,22MAR2007,N,Y,25JAN2007,29,,Week 4,4,Target Plaque 2 Erythema Severity Score,TP2ERY,7,,Target Plaque 2,2,2.0,3,3.0,-1,-33.3,,23-36 DAYS,29,0,23,36,DAYS,,Y,,
BBC,BBC-10-151,151,10,151,ARM B,2,ARM B,2,Y,Y,Y,Y,28DEC2006,22MAR2007,N,Y,08FEB2007,43,,Week 6,6,Target Plaque 2 Erythema Severity Score,TP2ERY,7,,Target Plaque 2,2,2.0,3,3.0,-1,-33.3,,37-50 DAYS,43,0,37,50,DAYS,,Y,,
BBC,BBC-10-151,151,10,152,ARM B,2,ARM B,2,Y,Y,Y,Y,28DEC2006,22MAR2007,N,Y,22FEB2007,57,,Week 8,8,Target Plaque 2 Erythema Severity Score,TP2ERY,7,,Target Plaque 2,2,2.0,3,3.0,-1,-33.3,,51-71 DAYS,57,0,51,71,DAYS,,Y,,
BBC,BBC-10-151,151,10,153,ARM B,2,ARM B,2,Y,Y,Y,Y,28DEC2006,22MAR2007,N,Y,22MAR2007,85,,Week 12,12,Target Plaque 2 Erythema Severity Score,TP2ERY,7,,Target Plaque 2,2,2.0,3,3.0,-1,-33.3,,72-99 DAYS,85,0,72,99,DAYS,,Y,,
BBC,BBC-10-151,151,10,154,ARM B,2,ARM B,2,Y,Y,Y,Y,28DEC2006,22MAR2007,N,Y,19APR2007,113,,Week 16,16,Target Plaque 2 Erythema Severity Score,TP2ERY,7,,Target Plaque 2,2,2.0,3,3.0,-1,-33.3,,22-36 DAYS POST-LAST-DOSE,113,0,106,120,DAYS,,,,
BBC,BBC-10-151,151,10,155,ARM B,2,ARM B,2,Y,Y,Y,Y,28DEC2006,22MAR2007,N,Y,28DEC2006,1,,Day 1 Baseline,0,Target Plaque 2 Induration (Elevation) Severity Score,TP2IND,8,,Target Plaque 2,3,3.0,3,3.0,,,,,,,,,,Y,Y,,
BBC,BBC-10-151,151,10,156,ARM B,2,ARM B,2,Y,Y,Y,Y,28DEC2006,22MAR2007,N,Y,12JAN2007,16,,Week 2,2,Target Plaque 2 Induration (Elevation) Severity Score,TP2IND,8,,Target Plaque 2,3,3.0,3,3.0,0,0,,8-22 DAYS,15,1,8,22,DAYS,,Y,,
BBC,BBC-10-151,151,10,157,ARM B,2,ARM B,2,Y,Y,Y,Y,28DEC2006,22MAR2007,N,Y,25JAN2007,29,,Week 4,4,Target Plaque 2 Induration (Elevation) Severity Score,TP2IND,8,,Target Plaque 2,3,3.0,3,3.0,0,0,,23-36 DAYS,29,0,23,36,DAYS,,Y,,
BBC,BBC-10-151,151,10,158,ARM B,2,ARM B,2,Y,Y,Y,Y,28DEC2006,22MAR2007,N,Y,08FEB2007,43,,Week 6,6,Target Plaque 2 Induration (Elevation) Severity Score,TP2IND,8,,Target Plaque 2,3,3.0,3,3.0,0,0,,37-50 DAYS,43,0,37,50,DAYS,,Y,,
BBC,BBC-10-151,151,10,159,ARM B,2,ARM B,2,Y,Y,Y,Y,28DEC2006,22MAR2007,N,Y,22FEB2007,57,,Week 8,8,Target Plaque 2 Induration (Elevation) Severity Score,TP2IND,8,,Target Plaque 2,2,2.0,3,3.0,-1,-33.3,,51-71 DAYS,57,0,51,71,DAYS,,Y,,
BBC,BBC-10-151,151,10,160,ARM B,2,ARM B,2,Y,Y,Y,Y,28DEC2006,22MAR2007,N,Y,22MAR2007,85,,Week 12,12,Target Plaque 2 Induration (Elevation) Severity Score,TP2IND,8,,Target Plaque 2,3,3.0,3,3.0,0,0,,72-99 DAYS,85,0,72,99,DAYS,,Y,,
BBC,BBC-10-151,151,10,161,ARM B,2,ARM B,2,Y,Y,Y,Y,28DEC2006,22MAR2007,N,Y,19APR2007,113,,Week 16,16,Target Plaque 2 Induration (Elevation) Severity Score,TP2IND,8,,Target Plaque 2,2,2.0,3,3.0,-1,-33.3,,22-36 DAYS POST-LAST-DOSE,113,0,106,120,DAYS,,,,
BBC,BBC-10-151,151,10,162,ARM B,2,ARM B,2,Y,Y,Y,Y,28DEC2006,22MAR2007,N,Y,28DEC2006,1,,Day 1 Baseline,0,Target Plaque 2 Scaling Severity Score,TP2SCAL,9,,Target Plaque 2,3,3.0,3,3.0,,,,,,,,,,Y,Y,,
BBC,BBC-10-151,151,10,163,ARM B,2,ARM B,2,Y,Y,Y,Y,28DEC2006,22MAR2007,N,Y,12JAN2007,16,,Week 2,2,Target Plaque 2 Scaling Severity Score,TP2SCAL,9,,Target Plaque 2,3,3.0,3,3.0,0,0,,8-22 DAYS,15,1,8,22,DAYS,,Y,,
BBC,BBC-10-151,151,10,164,ARM B,2,ARM B,2,Y,Y,Y,Y,28DEC2006,22MAR2007,N,Y,25JAN2007,29,,Week 4,4,Target Plaque 2 Scaling Severity Score,TP2SCAL,9,,Target Plaque 2,3,3.0,3,3.0,0,0,,23-36 DAYS,29,0,23,36,DAYS,,Y,,
BBC,BBC-10-151,151,10,165,ARM B,2,ARM B,2,Y,Y,Y,Y,28DEC2006,22MAR2007,N,Y,08FEB2007,43,,Week 6,6,Target Plaque 2 Scaling Severity Score,TP2SCAL,9,,Target Plaque 2,2,2.0,3,3.0,-1,-33.3,,37-50 DAYS,43,0,37,50,DAYS,,Y,,
BBC,BBC-10-151,151,10,166,ARM B,2,ARM B,2,Y,Y,Y,Y,28DEC2006,22MAR2007,N,Y,22FEB2007,57,,Week 8,8,Target Plaque 2 Scaling Severity Score,TP2SCAL,9,,Target Plaque 2,1,1.0,3,3.0,-2,-66.7,,51-71 DAYS,57,0,51,71,DAYS,,Y,,
BBC,BBC-10-151,151,10,167,ARM B,2,ARM B,2,Y,Y,Y,Y,28DEC2006,22MAR2007,N,Y,22MAR2007,85,,Week 12,12,Target Plaque 2 Scaling Severity Score,TP2SCAL,9,,Target Plaque 2,2,2.0,3,3.0,-1,-33.3,,72-99 DAYS,85,0,72,99,DAYS,,Y,,
BBC,BBC-10-151,151,10,168,ARM B,2,ARM B,2,Y,Y,Y,Y,28DEC2006,22MAR2007,N,Y,19APR2007,113,,Week 16,16,Target Plaque 2 Scaling Severity Score,TP2SCAL,9,,Target Plaque 2,4,4.0,3,3.0,1,33.3,,22-36 DAYS POST-LAST-DOSE,113,0,106,120,DAYS,,,,
BBC,BBC-10-151,151,10,141,ARM B,2,ARM B,2,Y,Y,Y,Y,28DEC2006,22MAR2007,N,Y,28DEC2006,1,,Day 1 Baseline,0,Target Plaque 2 CPSS Score,TP2CPSS,10,,Target Plaque 2,9,9.0,9,9.0,,,,,,,,,,Y,Y,,
BBC,BBC-10-151,151,10,142,ARM B,2,ARM B,2,Y,Y,Y,Y,28DEC2006,22MAR2007,N,Y,12JAN2007,16,,Week 2,2,Target Plaque 2 CPSS Score,TP2CPSS,10,,Target Plaque 2,8,8.0,9,9.0,-1,-11.1,,8-22 DAYS,15,1,8,22,DAYS,,Y,,
BBC,BBC-10-151,151,10,143,ARM B,2,ARM B,2,Y,Y,Y,Y,28DEC2006,22MAR2007,N,Y,25JAN2007,29,,Week 4,4,Target Plaque 2 CPSS Score,TP2CPSS,10,,Target Plaque 2,8,8.0,9,9.0,-1,-11.1,,23-36 DAYS,29,0,23,36,DAYS,,Y,,
BBC,BBC-10-151,151,10,144,ARM B,2,ARM B,2,Y,Y,Y,Y,28DEC2006,22MAR2007,N,Y,08FEB2007,43,,Week 6,6,Target Plaque 2 CPSS Score,TP2CPSS,10,,Target Plaque 2,7,7.0,9,9.0,-2,-22.2,,37-50 DAYS,43,0,37,50,DAYS,,Y,,
BBC,BBC-10-151,151,10,145,ARM B,2,ARM B,2,Y,Y,Y,Y,28DEC2006,22MAR2007,N,Y,22FEB2007,57,,Week 8,8,Target Plaque 2 CPSS Score,TP2CPSS,10,,Target Plaque 2,5,5.0,9,9.0,-4,-44.4,,51-71 DAYS,57,0,51,71,DAYS,,Y,,
BBC,BBC-10-151,151,10,146,ARM B,2,ARM B,2,Y,Y,Y,Y,28DEC2006,22MAR2007,N,Y,22MAR2007,85,,Week 12,12,Target Plaque 2 CPSS Score,TP2CPSS,10,,Target Plaque 2,7,7.0,9,9.0,-2,-22.2,,72-99 DAYS,85,0,72,99,DAYS,,Y,,
BBC,BBC-10-151,151,10,147,ARM B,2,ARM B,2,Y,Y,Y,Y,28DEC2006,22MAR2007,N,Y,19APR2007,113,,Week 16,16,Target Plaque 2 CPSS Score,TP2CPSS,10,,Target Plaque 2,8,8.0,9,9.0,-1,-11.1,,22-36 DAYS POST-LAST-DOSE,113,0,106,120,DAYS,,,,
BBC,BBC-10-151,151,10,145,ARM B,2,ARM B,2,Y,Y,Y,Y,28DEC2006,22MAR2007,N,Y,22FEB2007,57,,Week 8,8,Target Plaque 2 CPSS Best Score During Treatment,TP2BEST,11,DERIVED,Target Plaque 2,-4,-4.0,,,,,,,,,,,,,Y,Improved During Treatment,Y
BBC,BBC-10-151,151,10,147,ARM B,2,ARM B,2,Y,Y,Y,Y,28DEC2006,22MAR2007,N,Y,,,,,,Target Plaque 2 CPSS Relapse at Week 16,TP2RLPS,12,DERIVED,Target Plaque 2,,Y,,,-1,-11.1,,,,,,,,,,,
BBC,BBC-10-151,151,10,,ARM B,2,ARM B,2,Y,Y,Y,Y,28DEC2006,22MAR2007,N,Y,28DEC2006,1,,Day 1 Baseline,0,Average Erythema Severity Score,AVGERY,13,DERIVED,Average,3,3.0,3,3.0,,,,,,,,,,Y,Y,,
BBC,BBC-10-151,151,10,,ARM B,2,ARM B,2,Y,Y,Y,Y,28DEC2006,22MAR2007,N,Y,12JAN2007,16,,Week 2,2,Average Erythema Severity Score,AVGERY,13,DERIVED,Average,2,2.0,3,3.0,-1,-33.3,,8-22 DAYS,15,1,8,22,DAYS,,Y,,
BBC,BBC-10-151,151,10,,ARM B,2,ARM B,2,Y,Y,Y,Y,28DEC2006,22MAR2007,N,Y,25JAN2007,29,,Week 4,4,Average Erythema Severity Score,AVGERY,13,DERIVED,Average,2,2.0,3,3.0,-1,-33.3,,23-36 DAYS,29,0,23,36,DAYS,,Y,,
BBC,BBC-10-151,151,10,,ARM B,2,ARM B,2,Y,Y,Y,Y,28DEC2006,22MAR2007,N,Y,08FEB2007,43,,Week 6,6,Average Erythema Severity Score,AVGERY,13,DERIVED,Average,2,2.0,3,3.0,-1,-33.3,,37-50 DAYS,43,0,37,50,DAYS,,Y,,
BBC,BBC-10-151,151,10,,ARM B,2,ARM B,2,Y,Y,Y,Y,28DEC2006,22MAR2007,N,Y,22FEB2007,57,,Week 8,8,Average Erythema Severity Score,AVGERY,13,DERIVED,Average,2,2.0,3,3.0,-1,-33.3,,51-71 DAYS,57,0,51,71,DAYS,,Y,,
BBC,BBC-10-151,151,10,,ARM B,2,ARM B,2,Y,Y,Y,Y,28DEC2006,22MAR2007,N,Y,22MAR2007,85,,Week 12,12,Average Erythema Severity Score,AVGERY,13,DERIVED,Average,2,2.0,3,3.0,-1,-33.3,,72-99 DAYS,85,0,72,99,DAYS,,Y,,
BBC,BBC-10-151,151,10,,ARM B,2,ARM B,2,Y,Y,Y,Y,28DEC2006,22MAR2007,N,Y,19APR2007,113,,Week 16,16,Average Erythema Severity Score,AVGERY,13,DERIVED,Average,2,2.0,3,3.0,-1,-33.3,,22-36 DAYS POST-LAST-DOSE,113,0,106,120,DAYS,,,,
BBC,BBC-10-151,151,10,,ARM B,2,ARM B,2,Y,Y,Y,Y,28DEC2006,22MAR2007,N,Y,28DEC2006,1,,Day 1 Baseline,0,Average Induration (Elevation) Severity Score,AVGIND,14,DERIVED,Average,3,3.0,3,3.0,,,,,,,,,,Y,Y,,
BBC,BBC-10-151,151,10,,ARM B,2,ARM B,2,Y,Y,Y,Y,28DEC2006,22MAR2007,N,Y,12JAN2007,16,,Week 2,2,Average Induration (Elevation) Severity Score,AVGIND,14,DERIVED,Average,3,3.0,3,3.0,0,0,,8-22 DAYS,15,1,8,22,DAYS,,Y,,
BBC,BBC-10-151,151,10,,ARM B,2,ARM B,2,Y,Y,Y,Y,28DEC2006,22MAR2007,N,Y,25JAN2007,29,,Week 4,4,Average Induration (Elevation) Severity Score,AVGIND,14,DERIVED,Average,3,3.0,3,3.0,0,0,,23-36 DAYS,29,0,23,36,DAYS,,Y,,
BBC,BBC-10-151,151,10,,ARM B,2,ARM B,2,Y,Y,Y,Y,28DEC2006,22MAR2007,N,Y,08FEB2007,43,,Week 6,6,Average Induration (Elevation) Severity Score,AVGIND,14,DERIVED,Average,3,3.0,3,3.0,0,0,,37-50 DAYS,43,0,37,50,DAYS,,Y,,
BBC,BBC-10-151,151,10,,ARM B,2,ARM B,2,Y,Y,Y,Y,28DEC2006,22MAR2007,N,Y,22FEB2007,57,,Week 8,8,Average Induration (Elevation) Severity Score,AVGIND,14,DERIVED,Average,2,2.0,3,3.0,-1,-33.3,,51-71 DAYS,57,0,51,71,DAYS,,Y,,
BBC,BBC-10-151,151,10,,ARM B,2,ARM B,2,Y,Y,Y,Y,28DEC2006,22MAR2007,N,Y,22MAR2007,85,,Week 12,12,Average Induration (Elevation) Severity Score,AVGIND,14,DERIVED,Average,3,3.0,3,3.0,0,0,,72-99 DAYS,85,0,72,99,DAYS,,Y,,
BBC,BBC-10-151,151,10,,ARM B,2,ARM B,2,Y,Y,Y,Y,28DEC2006,22MAR2007,N,Y,19APR2007,113,,Week 16,16,Average Induration (Elevation) Severity Score,AVGIND,14,DERIVED,Average,2,2.0,3,3.0,-1,-33.3,,22-36 DAYS POST-LAST-DOSE,113,0,106,120,DAYS,,,,
BBC,BBC-10-151,151,10,,ARM B,2,ARM B,2,Y,Y,Y,Y,28DEC2006,22MAR2007,N,Y,28DEC2006,1,,Day 1 Baseline,0,Average Scaling Severity Score,AVGSCAL,15,DERIVED,Average,3,3.0,3,3.0,,,,,,,,,,Y,Y,,
BBC,BBC-10-151,151,10,,ARM B,2,ARM B,2,Y,Y,Y,Y,28DEC2006,22MAR2007,N,Y,12JAN2007,16,,Week 2,2,Average Scaling Severity Score,AVGSCAL,15,DERIVED,Average,3,3.0,3,3.0,0,0,,8-22 DAYS,15,1,8,22,DAYS,,Y,,
BBC,BBC-10-151,151,10,,ARM B,2,ARM B,2,Y,Y,Y,Y,28DEC2006,22MAR2007,N,Y,25JAN2007,29,,Week 4,4,Average Scaling Severity Score,AVGSCAL,15,DERIVED,Average,3,3.0,3,3.0,0,0,,23-36 DAYS,29,0,23,36,DAYS,,Y,,
BBC,BBC-10-151,151,10,,ARM B,2,ARM B,2,Y,Y,Y,Y,28DEC2006,22MAR2007,N,Y,08FEB2007,43,,Week 6,6,Average Scaling Severity Score,AVGSCAL,15,DERIVED,Average,2,2.0,3,3.0,-1,-33.3,,37-50 DAYS,43,0,37,50,DAYS,,Y,,
BBC,BBC-10-151,151,10,,ARM B,2,ARM B,2,Y,Y,Y,Y,28DEC2006,22MAR2007,N,Y,22FEB2007,57,,Week 8,8,Average Scaling Severity Score,AVGSCAL,15,DERIVED,Average,1,1.0,3,3.0,-2,-66.7,,51-71 DAYS,57,0,51,71,DAYS,,Y,,
BBC,BBC-10-151,151,10,,ARM B,2,ARM B,2,Y,Y,Y,Y,28DEC2006,22MAR2007,N,Y,22MAR2007,85,,Week 12,12,Average Scaling Severity Score,AVGSCAL,15,DERIVED,Average,2,2.0,3,3.0,-1,-33.3,,72-99 DAYS,85,0,72,99,DAYS,,Y,,
BBC,BBC-10-151,151,10,,ARM B,2,ARM B,2,Y,Y,Y,Y,28DEC2006,22MAR2007,N,Y,19APR2007,113,,Week 16,16,Average Scaling Severity Score,AVGSCAL,15,DERIVED,Average,4,4.0,3,3.0,1,33.3,,22-36 DAYS POST-LAST-DOSE,113,0,106,120,DAYS,,,,
BBC,BBC-10-151,151,10,,ARM B,2,ARM B,2,Y,Y,Y,Y,28DEC2006,22MAR2007,N,Y,28DEC2006,1,,Day 1 Baseline,0,Average CPSS Score,AVGCPSS,16,DERIVED,Average,9,9.0,9,9.0,,,,,,,,,,Y,Y,,
BBC,BBC-10-151,151,10,,ARM B,2,ARM B,2,Y,Y,Y,Y,28DEC2006,22MAR2007,N,Y,12JAN2007,16,,Week 2,2,Average CPSS Score,AVGCPSS,16,DERIVED,Average,8,8.0,9,9.0,-1,-11.1,,8-22 DAYS,15,1,8,22,DAYS,,Y,,
BBC,BBC-10-151,151,10,,ARM B,2,ARM B,2,Y,Y,Y,Y,28DEC2006,22MAR2007,N,Y,25JAN2007,29,,Week 4,4,Average CPSS Score,AVGCPSS,16,DERIVED,Average,8,8.0,9,9.0,-1,-11.1,,23-36 DAYS,29,0,23,36,DAYS,,Y,,
BBC,BBC-10-151,151,10,,ARM B,2,ARM B,2,Y,Y,Y,Y,28DEC2006,22MAR2007,N,Y,08FEB2007,43,,Week 6,6,Average CPSS Score,AVGCPSS,16,DERIVED,Average,7,7.0,9,9.0,-2,-22.2,,37-50 DAYS,43,0,37,50,DAYS,,Y,,
BBC,BBC-10-151,151,10,,ARM B,2,ARM B,2,Y,Y,Y,Y,28DEC2006,22MAR2007,N,Y,22FEB2007,57,,Week 8,8,Average CPSS Score,AVGCPSS,16,DERIVED,Average,5,5.0,9,9.0,-4,-44.4,,51-71 DAYS,57,0,51,71,DAYS,,Y,,
BBC,BBC-10-151,151,10,,ARM B,2,ARM B,2,Y,Y,Y,Y,28DEC2006,22MAR2007,N,Y,22MAR2007,85,,Week 12,12,Average CPSS Score,AVGCPSS,16,DERIVED,Average,7,7.0,9,9.0,-2,-22.2,,72-99 DAYS,85,0,72,99,DAYS,,Y,,
BBC,BBC-10-151,151,10,,ARM B,2,ARM B,2,Y,Y,Y,Y,28DEC2006,22MAR2007,N,Y,19APR2007,113,,Week 16,16,Average CPSS Score,AVGCPSS,16,DERIVED,Average,8,8.0,9,9.0,-1,-11.1,,22-36 DAYS POST-LAST-DOSE,113,0,106,120,DAYS,,,,
BBC,BBC-10-151,151,10,,ARM B,2,ARM B,2,Y,Y,Y,Y,28DEC2006,22MAR2007,N,Y,22FEB2007,57,,Week 8,8,Average CPSS Best Score During Treatment,AVGBEST,17,DERIVED,Average,-4,-4.0,,0.0,,,,,,,,,,,Y,Improved During Treatment,Y
BBC,BBC-10-151,151,10,,ARM B,2,ARM B,2,Y,Y,Y,Y,28DEC2006,22MAR2007,N,Y,,,,,,Average CPSS Relapse at Week 16,AVGRLPS,18,DERIVED,Average,,Y,,0.0,-1,-11.1,,,,,,,,,,,
BBC,BBC-10-152,152,10,113,ARM C,3,ARM C,3,Y,Y,Y,Y,08JAN2007,04APR2007,N,Y,08JAN2007,1,,Day 1 Baseline,0,Target Plaque 1 Erythema Severity Score,TP1ERY,1,,Target Plaque 1,3,3.0,3,3.0,,,,,,,,,,Y,Y,,
BBC,BBC-10-152,152,10,114,ARM C,3,ARM C,3,Y,Y,Y,Y,08JAN2007,04APR2007,N,Y,23JAN2007,16,,Week 2,2,Target Plaque 1 Erythema Severity Score,TP1ERY,1,,Target Plaque 1,3,3.0,3,3.0,0,0,,8-22 DAYS,15,1,8,22,DAYS,,Y,,
BBC,BBC-10-152,152,10,113,ARM C,3,ARM C,3,Y,Y,Y,Y,08JAN2007,04APR2007,N,Y,,,,Week 4,4,Target Plaque 1 Erythema Severity Score,TP1ERY,1,,Target Plaque 1,3,3.0,3,3.0,,,LOCF,,,,,,,,Y,,
BBC,BBC-10-152,152,10,115,ARM C,3,ARM C,3,Y,Y,Y,Y,08JAN2007,04APR2007,N,Y,13FEB2007,37,,Week 6,6,Target Plaque 1 Erythema Severity Score,TP1ERY,1,,Target Plaque 1,1,1.0,3,3.0,-2,-66.7,,37-50 DAYS,43,6,37,50,DAYS,,,,
BBC,BBC-10-152,152,10,116,ARM C,3,ARM C,3,Y,Y,Y,Y,08JAN2007,04APR2007,N,Y,23FEB2007,47,,Week 6,6,Target Plaque 1 Erythema Severity Score,TP1ERY,1,,Target Plaque 1,2,2.0,3,3.0,-1,-33.3,,37-50 DAYS,43,4,37,50,DAYS,,Y,,
BBC,BBC-10-152,152,10,117,ARM C,3,ARM C,3,Y,Y,Y,Y,08JAN2007,04APR2007,N,Y,12MAR2007,64,,Week 8,8,Target Plaque 1 Erythema Severity Score,TP1ERY,1,,Target Plaque 1,1,1.0,3,3.0,-2,-66.7,,51-71 DAYS,57,7,51,71,DAYS,,Y,,
BBC,BBC-10-152,152,10,118,ARM C,3,ARM C,3,Y,Y,Y,Y,08JAN2007,04APR2007,N,Y,04APR2007,87,,Week 12,12,Target Plaque 1 Erythema Severity Score,TP1ERY,1,,Target Plaque 1,2,2.0,3,3.0,-1,-33.3,,72-99 DAYS,85,2,72,99,DAYS,,Y,,
BBC,BBC-10-152,152,10,119,ARM C,3,ARM C,3,Y,Y,Y,Y,08JAN2007,04APR2007,N,Y,30APR2007,113,,Week 16,16,Target Plaque 1 Erythema Severity Score,TP1ERY,1,,Target Plaque 1,2,2.0,3,3.0,-1,-33.3,,22-36 DAYS POST-LAST-DOSE,115,2,108,122,DAYS,,,,
BBC,BBC-10-152,152,10,120,ARM C,3,ARM C,3,Y,Y,Y,Y,08JAN2007,04APR2007,N,Y,08JAN2007,1,,Day 1 Baseline,0,Target Plaque 1 Induration (Elevation) Severity Score,TP1IND,2,,Target Plaque 1,2,2.0,2,2.0,,,,,,,,,,Y,Y,,
BBC,BBC-10-152,152,10,121,ARM C,3,ARM C,3,Y,Y,Y,Y,08JAN2007,04APR2007,N,Y,23JAN2007,16,,Week 2,2,Target Plaque 1 Induration (Elevation) Severity Score,TP1IND,2,,Target Plaque 1,2,2.0,2,2.0,0,0,,8-22 DAYS,15,1,8,22,DAYS,,Y,,
BBC,BBC-10-152,152,10,120,ARM C,3,ARM C,3,Y,Y,Y,Y,08JAN2007,04APR2007,N,Y,,,,Week 4,4,Target Plaque 1 Induration (Elevation) Severity Score,TP1IND,2,,Target Plaque 1,2,2.0,2,2.0,,,LOCF,,,,,,,,Y,,
BBC,BBC-10-152,152,10,122,ARM C,3,ARM C,3,Y,Y,Y,Y,08JAN2007,04APR2007,N,Y,13FEB2007,37,,Week 6,6,Target Plaque 1 Induration (Elevation) Severity Score,TP1IND,2,,Target Plaque 1,1,1.0,2,2.0,-1,-50,,37-50 DAYS,43,6,37,50,DAYS,,,,
BBC,BBC-10-152,152,10,123,ARM C,3,ARM C,3,Y,Y,Y,Y,08JAN2007,04APR2007,N,Y,23FEB2007,47,,Week 6,6,Target Plaque 1 Induration (Elevation) Severity Score,TP1IND,2,,Target Plaque 1,2,2.0,2,2.0,0,0,,37-50 DAYS,43,4,37,50,DAYS,,Y,,
BBC,BBC-10-152,152,10,124,ARM C,3,ARM C,3,Y,Y,Y,Y,08JAN2007,04APR2007,N,Y,12MAR2007,64,,Week 8,8,Target Plaque 1 Induration (Elevation) Severity Score,TP1IND,2,,Target Plaque 1,2,2.0,2,2.0,0,0,,51-71 DAYS,57,7,51,71,DAYS,,Y,,
BBC,BBC-10-152,152,10,125,ARM C,3,ARM C,3,Y,Y,Y,Y,08JAN2007,04APR2007,N,Y,04APR2007,87,,Week 12,12,Target Plaque 1 Induration (Elevation) Severity Score,TP1IND,2,,Target Plaque 1,1,1.0,2,2.0,-1,-50,,72-99 DAYS,85,2,72,99,DAYS,,Y,,
BBC,BBC-10-152,152,10,126,ARM C,3,ARM C,3,Y,Y,Y,Y,08JAN2007,04APR2007,N,Y,30APR2007,113,,Week 16,16,Target Plaque 1 Induration (Elevation) Severity Score,TP1IND,2,,Target Plaque 1,2,2.0,2,2.0,0,0,,22-36 DAYS POST-LAST-DOSE,115,2,108,122,DAYS,,,,
BBC,BBC-10-152,152,10,127,ARM C,3,ARM C,3,Y,Y,Y,Y,08JAN2007,04APR2007,N,Y,08JAN2007,1,,Day 1 Baseline,0,Target Plaque 1 Scaling Severity Score,TP1SCAL,3,,Target Plaque 1,2,2.0,2,2.0,,,,,,,,,,Y,Y,,
BBC,BBC-10-152,152,10,128,ARM C,3,ARM C,3,Y,Y,Y,Y,08JAN2007,04APR2007,N,Y,23JAN2007,16,,Week 2,2,Target Plaque 1 Scaling Severity Score,TP1SCAL,3,,Target Plaque 1,2,2.0,2,2.0,0,0,,8-22 DAYS,15,1,8,22,DAYS,,Y,,
BBC,BBC-10-152,152,10,127,ARM C,3,ARM C,3,Y,Y,Y,Y,08JAN2007,04APR2007,N,Y,,,,Week 4,4,Target Plaque 1 Scaling Severity Score,TP1SCAL,3,,Target Plaque 1,2,2.0,2,2.0,,,LOCF,,,,,,,,Y,,
BBC,BBC-10-152,152,10,129,ARM C,3,ARM C,3,Y,Y,Y,Y,08JAN2007,04APR2007,N,Y,13FEB2007,37,,Week 6,6,Target Plaque 1 Scaling Severity Score,TP1SCAL,3,,Target Plaque 1,1,1.0,2,2.0,-1,-50,,37-50 DAYS,43,6,37,50,DAYS,,,,
BBC,BBC-10-152,152,10,130,ARM C,3,ARM C,3,Y,Y,Y,Y,08JAN2007,04APR2007,N,Y,23FEB2007,47,,Week 6,6,Target Plaque 1 Scaling Severity Score,TP1SCAL,3,,Target Plaque 1,2,2.0,2,2.0,0,0,,37-50 DAYS,43,4,37,50,DAYS,,Y,,
BBC,BBC-10-152,152,10,131,ARM C,3,ARM C,3,Y,Y,Y,Y,08JAN2007,04APR2007,N,Y,12MAR2007,64,,Week 8,8,Target Plaque 1 Scaling Severity Score,TP1SCAL,3,,Target Plaque 1,2,2.0,2,2.0,0,0,,51-71 DAYS,57,7,51,71,DAYS,,Y,,
BBC,BBC-10-152,152,10,132,ARM C,3,ARM C,3,Y,Y,Y,Y,08JAN2007,04APR2007,N,Y,04APR2007,87,,Week 12,12,Target Plaque 1 Scaling Severity Score,TP1SCAL,3,,Target Plaque 1,3,3.0,2,2.0,1,50,,72-99 DAYS,85,2,72,99,DAYS,,Y,,
BBC,BBC-10-152,152,10,133,ARM C,3,ARM C,3,Y,Y,Y,Y,08JAN2007,04APR2007,N,Y,30APR2007,113,,Week 16,16,Target Plaque 1 Scaling Severity Score,TP1SCAL,3,,Target Plaque 1,2,2.0,2,2.0,0,0,,22-36 DAYS POST-LAST-DOSE,115,2,108,122,DAYS,,,,
BBC,BBC-10-152,152,10,106,ARM C,3,ARM C,3,Y,Y,Y,Y,08JAN2007,04APR2007,N,Y,08JAN2007,1,,Day 1 Baseline,0,Target Plaque 1 CPSS Score,TP1CPSS,4,,Target Plaque 1,7,7.0,7,7.0,,,,,,,,,,Y,Y,,
BBC,BBC-10-152,152,10,107,ARM C,3,ARM C,3,Y,Y,Y,Y,08JAN2007,04APR2007,N,Y,23JAN2007,16,,Week 2,2,Target Plaque 1 CPSS Score,TP1CPSS,4,,Target Plaque 1,7,7.0,7,7.0,0,0,,8-22 DAYS,15,1,8,22,DAYS,,Y,,
BBC,BBC-10-152,152,10,106,ARM C,3,ARM C,3,Y,Y,Y,Y,08JAN2007,04APR2007,N,Y,,,,Week 4,4,Target Plaque 1 CPSS Score,TP1CPSS,4,,Target Plaque 1,7,7.0,7,7.0,,,LOCF,,,,,,,,Y,,
BBC,BBC-10-152,152,10,108,ARM C,3,ARM C,3,Y,Y,Y,Y,08JAN2007,04APR2007,N,Y,13FEB2007,37,,Week 6,6,Target Plaque 1 CPSS Score,TP1CPSS,4,,Target Plaque 1,3,3.0,7,7.0,-4,-57.1,,37-50 DAYS,43,6,37,50,DAYS,,,,
BBC,BBC-10-152,152,10,109,ARM C,3,ARM C,3,Y,Y,Y,Y,08JAN2007,04APR2007,N,Y,23FEB2007,47,,Week 6,6,Target Plaque 1 CPSS Score,TP1CPSS,4,,Target Plaque 1,6,6.0,7,7.0,-1,-14.3,,37-50 DAYS,43,4,37,50,DAYS,,Y,,
BBC,BBC-10-152,152,10,110,ARM C,3,ARM C,3,Y,Y,Y,Y,08JAN2007,04APR2007,N,Y,12MAR2007,64,,Week 8,8,Target Plaque 1 CPSS Score,TP1CPSS,4,,Target Plaque 1,5,5.0,7,7.0,-2,-28.6,,51-71 DAYS,57,7,51,71,DAYS,,Y,,
BBC,BBC-10-152,152,10,111,ARM C,3,ARM C,3,Y,Y,Y,Y,08JAN2007,04APR2007,N,Y,04APR2007,87,,Week 12,12,Target Plaque 1 CPSS Score,TP1CPSS,4,,Target Plaque 1,6,6.0,7,7.0,-1,-14.3,,72-99 DAYS,85,2,72,99,DAYS,,Y,,
BBC,BBC-10-152,152,10,112,ARM C,3,ARM C,3,Y,Y,Y,Y,08JAN2007,04APR2007,N,Y,30APR2007,113,,Week 16,16,Target Plaque 1 CPSS Score,TP1CPSS,4,,Target Plaque 1,6,6.0,7,7.0,-1,-14.3,,22-36 DAYS POST-LAST-DOSE,115,2,108,122,DAYS,,,,
BBC,BBC-10-152,152,10,108,ARM C,3,ARM C,3,Y,Y,Y,Y,08JAN2007,04APR2007,N,Y,13FEB2007,37,,Week 6,6,Target Plaque 1 CPSS Best Score During Treatment,TP1BEST,5,DERIVED,Target Plaque 1,-4,-4.0,,,,,,,,,,,,,Y,Improved During Treatment,Y
BBC,BBC-10-152,152,10,112,ARM C,3,ARM C,3,Y,Y,Y,Y,08JAN2007,04APR2007,N,Y,,,,,,Target Plaque 1 CPSS Relapse at Week 16,TP1RLPS,6,DERIVED,Target Plaque 1,,Y,,,-1,-14.3,,,,,,,,,,,
BBC,BBC-10-152,152,10,148,ARM C,3,ARM C,3,Y,Y,Y,Y,08JAN2007,04APR2007,N,Y,08JAN2007,1,,Day 1 Baseline,0,Target Plaque 2 Erythema Severity Score,TP2ERY,7,,Target Plaque 2,3,3.0,3,3.0,,,,,,,,,,Y,Y,,
BBC,BBC-10-152,152,10,149,ARM C,3,ARM C,3,Y,Y,Y,Y,08JAN2007,04APR2007,N,Y,23JAN2007,16,,Week 2,2,Target Plaque 2 Erythema Severity Score,TP2ERY,7,,Target Plaque 2,3,3.0,3,3.0,0,0,,8-22 DAYS,15,1,8,22,DAYS,,Y,,
BBC,BBC-10-152,152,10,148,ARM C,3,ARM C,3,Y,Y,Y,Y,08JAN2007,04APR2007,N,Y,,,,Week 4,4,Target Plaque 2 Erythema Severity Score,TP2ERY,7,,Target Plaque 2,3,3.0,3,3.0,,,LOCF,,,,,,,,Y,,
BBC,BBC-10-152,152,10,150,ARM C,3,ARM C,3,Y,Y,Y,Y,08JAN2007,04APR2007,N,Y,13FEB2007,37,,Week 6,6,Target Plaque 2 Erythema Severity Score,TP2ERY,7,,Target Plaque 2,1,1.0,3,3.0,-2,-66.7,,37-50 DAYS,43,6,37,50,DAYS,,,,
BBC,BBC-10-152,152,10,151,ARM C,3,ARM C,3,Y,Y,Y,Y,08JAN2007,04APR2007,N,Y,23FEB2007,47,,Week 6,6,Target Plaque 2 Erythema Severity Score,TP2ERY,7,,Target Plaque 2,1,1.0,3,3.0,-2,-66.7,,37-50 DAYS,43,4,37,50,DAYS,,Y,,
BBC,BBC-10-152,152,10,152,ARM C,3,ARM C,3,Y,Y,Y,Y,08JAN2007,04APR2007,N,Y,12MAR2007,64,,Week 8,8,Target Plaque 2 Erythema Severity Score,TP2ERY,7,,Target Plaque 2,1,1.0,3,3.0,-2,-66.7,,51-71 DAYS,57,7,51,71,DAYS,,Y,,
BBC,BBC-10-152,152,10,153,ARM C,3,ARM C,3,Y,Y,Y,Y,08JAN2007,04APR2007,N,Y,04APR2007,87,,Week 12,12,Target Plaque 2 Erythema Severity Score,TP2ERY,7,,Target Plaque 2,0,0.0,3,3.0,-3,-100,,72-99 DAYS,85,2,72,99,DAYS,,Y,,
BBC,BBC-10-152,152,10,154,ARM C,3,ARM C,3,Y,Y,Y,Y,08JAN2007,04APR2007,N,Y,30APR2007,113,,Week 16,16,Target Plaque 2 Erythema Severity Score,TP2ERY,7,,Target Plaque 2,0,0.0,3,3.0,-3,-100,,22-36 DAYS POST-LAST-DOSE,115,2,108,122,DAYS,,,,
BBC,BBC-10-152,152,10,155,ARM C,3,ARM C,3,Y,Y,Y,Y,08JAN2007,04APR2007,N,Y,08JAN2007,1,,Day 1 Baseline,0,Target Plaque 2 Induration (Elevation) Severity Score,TP2IND,8,,Target Plaque 2,2,2.0,2,2.0,,,,,,,,,,Y,Y,,
BBC,BBC-10-152,152,10,156,ARM C,3,ARM C,3,Y,Y,Y,Y,08JAN2007,04APR2007,N,Y,23JAN2007,16,,Week 2,2,Target Plaque 2 Induration (Elevation) Severity Score,TP2IND,8,,Target Plaque 2,2,2.0,2,2.0,0,0,,8-22 DAYS,15,1,8,22,DAYS,,Y,,
BBC,BBC-10-152,152,10,155,ARM C,3,ARM C,3,Y,Y,Y,Y,08JAN2007,04APR2007,N,Y,,,,Week 4,4,Target Plaque 2 Induration (Elevation) Severity Score,TP2IND,8,,Target Plaque 2,2,2.0,2,2.0,,,LOCF,,,,,,,,Y,,
BBC,BBC-10-152,152,10,157,ARM C,3,ARM C,3,Y,Y,Y,Y,08JAN2007,04APR2007,N,Y,13FEB2007,37,,Week 6,6,Target Plaque 2 Induration (Elevation) Severity Score,TP2IND,8,,Target Plaque 2,1,1.0,2,2.0,-1,-50,,37-50 DAYS,43,6,37,50,DAYS,,,,
BBC,BBC-10-152,152,10,158,ARM C,3,ARM C,3,Y,Y,Y,Y,08JAN2007,04APR2007,N,Y,23FEB2007,47,,Week 6,6,Target Plaque 2 Induration (Elevation) Severity Score,TP2IND,8,,Target Plaque 2,1,1.0,2,2.0,-1,-50,,37-50 DAYS,43,4,37,50,DAYS,,Y,,
BBC,BBC-10-152,152,10,159,ARM C,3,ARM C,3,Y,Y,Y,Y,08JAN2007,04APR2007,N,Y,12MAR2007,64,,Week 8,8,Target Plaque 2 Induration (Elevation) Severity Score,TP2IND,8,,Target Plaque 2,0,0.0,2,2.0,-2,-100,,51-71 DAYS,57,7,51,71,DAYS,,Y,,
BBC,BBC-10-152,152,10,160,ARM C,3,ARM C,3,Y,Y,Y,Y,08JAN2007,04APR2007,N,Y,04APR2007,87,,Week 12,12,Target Plaque 2 Induration (Elevation) Severity Score,TP2IND,8,,Target Plaque 2,0,0.0,2,2.0,-2,-100,,72-99 DAYS,85,2,72,99,DAYS,,Y,,
BBC,BBC-10-152,152,10,161,ARM C,3,ARM C,3,Y,Y,Y,Y,08JAN2007,04APR2007,N,Y,30APR2007,113,,Week 16,16,Target Plaque 2 Induration (Elevation) Severity Score,TP2IND,8,,Target Plaque 2,0,0.0,2,2.0,-2,-100,,22-36 DAYS POST-LAST-DOSE,115,2,108,122,DAYS,,,,
BBC,BBC-10-152,152,10,162,ARM C,3,ARM C,3,Y,Y,Y,Y,08JAN2007,04APR2007,N,Y,08JAN2007,1,,Day 1 Baseline,0,Target Plaque 2 Scaling Severity Score,TP2SCAL,9,,Target Plaque 2,2,2.0,2,2.0,,,,,,,,,,Y,Y,,
BBC,BBC-10-152,152,10,163,ARM C,3,ARM C,3,Y,Y,Y,Y,08JAN2007,04APR2007,N,Y,23JAN2007,16,,Week 2,2,Target Plaque 2 Scaling Severity Score,TP2SCAL,9,,Target Plaque 2,1,1.0,2,2.0,-1,-50,,8-22 DAYS,15,1,8,22,DAYS,,Y,,
BBC,BBC-10-152,152,10,162,ARM C,3,ARM C,3,Y,Y,Y,Y,08JAN2007,04APR2007,N,Y,,,,Week 4,4,Target Plaque 2 Scaling Severity Score,TP2SCAL,9,,Target Plaque 2,1,1.0,2,2.0,,,LOCF,,,,,,,,Y,,
BBC,BBC-10-152,152,10,164,ARM C,3,ARM C,3,Y,Y,Y,Y,08JAN2007,04APR2007,N,Y,13FEB2007,37,,Week 6,6,Target Plaque 2 Scaling Severity Score,TP2SCAL,9,,Target Plaque 2,0,0.0,2,2.0,-2,-100,,37-50 DAYS,43,6,37,50,DAYS,,,,
BBC,BBC-10-152,152,10,165,ARM C,3,ARM C,3,Y,Y,Y,Y,08JAN2007,04APR2007,N,Y,23FEB2007,47,,Week 6,6,Target Plaque 2 Scaling Severity Score,TP2SCAL,9,,Target Plaque 2,1,1.0,2,2.0,-1,-50,,37-50 DAYS,43,4,37,50,DAYS,,Y,,
BBC,BBC-10-152,152,10,166,ARM C,3,ARM C,3,Y,Y,Y,Y,08JAN2007,04APR2007,N,Y,12MAR2007,64,,Week 8,8,Target Plaque 2 Scaling Severity Score,TP2SCAL,9,,Target Plaque 2,1,1.0,2,2.0,-1,-50,,51-71 DAYS,57,7,51,71,DAYS,,Y,,
BBC,BBC-10-152,152,10,167,ARM C,3,ARM C,3,Y,Y,Y,Y,08JAN2007,04APR2007,N,Y,04APR2007,87,,Week 12,12,Target Plaque 2 Scaling Severity Score,TP2SCAL,9,,Target Plaque 2,0,0.0,2,2.0,-2,-100,,72-99 DAYS,85,2,72,99,DAYS,,Y,,
BBC,BBC-10-152,152,10,168,ARM C,3,ARM C,3,Y,Y,Y,Y,08JAN2007,04APR2007,N,Y,30APR2007,113,,Week 16,16,Target Plaque 2 Scaling Severity Score,TP2SCAL,9,,Target Plaque 2,0,0.0,2,2.0,-2,-100,,22-36 DAYS POST-LAST-DOSE,115,2,108,122,DAYS,,,,
BBC,BBC-10-152,152,10,141,ARM C,3,ARM C,3,Y,Y,Y,Y,08JAN2007,04APR2007,N,Y,08JAN2007,1,,Day 1 Baseline,0,Target Plaque 2 CPSS Score,TP2CPSS,10,,Target Plaque 2,7,7.0,7,7.0,,,,,,,,,,Y,Y,,
BBC,BBC-10-152,152,10,142,ARM C,3,ARM C,3,Y,Y,Y,Y,08JAN2007,04APR2007,N,Y,23JAN2007,16,,Week 2,2,Target Plaque 2 CPSS Score,TP2CPSS,10,,Target Plaque 2,6,6.0,7,7.0,-1,-14.3,,8-22 DAYS,15,1,8,22,DAYS,,Y,,
BBC,BBC-10-152,152,10,141,ARM C,3,ARM C,3,Y,Y,Y,Y,08JAN2007,04APR2007,N,Y,,,,Week 4,4,Target Plaque 2 CPSS Score,TP2CPSS,10,,Target Plaque 2,6,6.0,7,7.0,,,LOCF,,,,,,,,Y,,
BBC,BBC-10-152,152,10,143,ARM C,3,ARM C,3,Y,Y,Y,Y,08JAN2007,04APR2007,N,Y,13FEB2007,37,,Week 6,6,Target Plaque 2 CPSS Score,TP2CPSS,10,,Target Plaque 2,2,2.0,7,7.0,-5,-71.4,,37-50 DAYS,43,6,37,50,DAYS,,,,
BBC,BBC-10-152,152,10,144,ARM C,3,ARM C,3,Y,Y,Y,Y,08JAN2007,04APR2007,N,Y,23FEB2007,47,,Week 6,6,Target Plaque 2 CPSS Score,TP2CPSS,10,,Target Plaque 2,3,3.0,7,7.0,-4,-57.1,,37-50 DAYS,43,4,37,50,DAYS,,Y,,
BBC,BBC-10-152,152,10,145,ARM C,3,ARM C,3,Y,Y,Y,Y,08JAN2007,04APR2007,N,Y,12MAR2007,64,,Week 8,8,Target Plaque 2 CPSS Score,TP2CPSS,10,,Target Plaque 2,2,2.0,7,7.0,-5,-71.4,,51-71 DAYS,57,7,51,71,DAYS,,Y,,
BBC,BBC-10-152,152,10,146,ARM C,3,ARM C,3,Y,Y,Y,Y,08JAN2007,04APR2007,N,Y,04APR2007,87,,Week 12,12,Target Plaque 2 CPSS Score,TP2CPSS,10,,Target Plaque 2,0,0.0,7,7.0,-7,-100,,72-99 DAYS,85,2,72,99,DAYS,,Y,,
BBC,BBC-10-152,152,10,147,ARM C,3,ARM C,3,Y,Y,Y,Y,08JAN2007,04APR2007,N,Y,30APR2007,113,,Week 16,16,Target Plaque 2 CPSS Score,TP2CPSS,10,,Target Plaque 2,0,0.0,7,7.0,-7,-100,,22-36 DAYS POST-LAST-DOSE,115,2,108,122,DAYS,,,,
BBC,BBC-10-152,152,10,146,ARM C,3,ARM C,3,Y,Y,Y,Y,08JAN2007,04APR2007,N,Y,04APR2007,87,,Week 12,12,Target Plaque 2 CPSS Best Score During Treatment,TP2BEST,11,DERIVED,Target Plaque 2,-7,-7.0,,,,,,,,,,,,,Y,Improved During Treatment,Y
BBC,BBC-10-152,152,10,147,ARM C,3,ARM C,3,Y,Y,Y,Y,08JAN2007,04APR2007,N,Y,,,,,,Target Plaque 2 CPSS Relapse at Week 16,TP2RLPS,12,DERIVED,Target Plaque 2,,N,,,-7,-100,,,,,,,,,,,
BBC,BBC-10-152,152,10,,ARM C,3,ARM C,3,Y,Y,Y,Y,08JAN2007,04APR2007,N,Y,08JAN2007,1,,Day 1 Baseline,0,Average Erythema Severity Score,AVGERY,13,DERIVED,Average,3,3.0,3,3.0,,,,,,,,,,Y,Y,,
BBC,BBC-10-152,152,10,,ARM C,3,ARM C,3,Y,Y,Y,Y,08JAN2007,04APR2007,N,Y,23JAN2007,16,,Week 2,2,Average Erythema Severity Score,AVGERY,13,DERIVED,Average,3,3.0,3,3.0,0,0,,8-22 DAYS,15,1,8,22,DAYS,,Y,,
BBC,BBC-10-152,152,10,,ARM C,3,ARM C,3,Y,Y,Y,Y,08JAN2007,04APR2007,N,Y,,,,Week 4,4,Average Erythema Severity Score,AVGERY,13,DERIVED,Average,3,3.0,3,3.0,,,LOCF,,,,,,,,Y,,
BBC,BBC-10-152,152,10,,ARM C,3,ARM C,3,Y,Y,Y,Y,08JAN2007,04APR2007,N,Y,13FEB2007,37,,Week 6,6,Average Erythema Severity Score,AVGERY,13,DERIVED,Average,1,1.0,3,3.0,-2,-66.7,,37-50 DAYS,43,6,37,50,DAYS,,,,
BBC,BBC-10-152,152,10,,ARM C,3,ARM C,3,Y,Y,Y,Y,08JAN2007,04APR2007,N,Y,23FEB2007,47,,Week 6,6,Average Erythema Severity Score,AVGERY,13,DERIVED,Average,1.5,1.5,3,3.0,-1.5,-66.7,,37-50 DAYS,43,4,37,50,DAYS,,Y,,
BBC,BBC-10-152,152,10,,ARM C,3,ARM C,3,Y,Y,Y,Y,08JAN2007,04APR2007,N,Y,12MAR2007,64,,Week 8,8,Average Erythema Severity Score,AVGERY,13,DERIVED,Average,1,1.0,3,3.0,-2,-66.7,,51-71 DAYS,57,7,51,71,DAYS,,Y,,
BBC,BBC-10-152,152,10,,ARM C,3,ARM C,3,Y,Y,Y,Y,08JAN2007,04APR2007,N,Y,04APR2007,87,,Week 12,12,Average Erythema Severity Score,AVGERY,13,DERIVED,Average,1,1.0,3,3.0,-2,-100,,72-99 DAYS,85,2,72,99,DAYS,,Y,,
BBC,BBC-10-152,152,10,,ARM C,3,ARM C,3,Y,Y,Y,Y,08JAN2007,04APR2007,N,Y,30APR2007,113,,Week 16,16,Average Erythema Severity Score,AVGERY,13,DERIVED,Average,1,1.0,3,3.0,-2,-100,,22-36 DAYS POST-LAST-DOSE,115,2,108,122,DAYS,,,,
BBC,BBC-10-152,152,10,,ARM C,3,ARM C,3,Y,Y,Y,Y,08JAN2007,04APR2007,N,Y,08JAN2007,1,,Day 1 Baseline,0,Average Induration (Elevation) Severity Score,AVGIND,14,DERIVED,Average,2,2.0,2,2.0,,,,,,,,,,Y,Y,,
BBC,BBC-10-152,152,10,,ARM C,3,ARM C,3,Y,Y,Y,Y,08JAN2007,04APR2007,N,Y,23JAN2007,16,,Week 2,2,Average Induration (Elevation) Severity Score,AVGIND,14,DERIVED,Average,2,2.0,2,2.0,0,0,,8-22 DAYS,15,1,8,22,DAYS,,Y,,
BBC,BBC-10-152,152,10,,ARM C,3,ARM C,3,Y,Y,Y,Y,08JAN2007,04APR2007,N,Y,,,,Week 4,4,Average Induration (Elevation) Severity Score,AVGIND,14,DERIVED,Average,2,2.0,2,2.0,,,LOCF,,,,,,,,Y,,
BBC,BBC-10-152,152,10,,ARM C,3,ARM C,3,Y,Y,Y,Y,08JAN2007,04APR2007,N,Y,13FEB2007,37,,Week 6,6,Average Induration (Elevation) Severity Score,AVGIND,14,DERIVED,Average,1,1.0,2,2.0,-1,-50,,37-50 DAYS,43,6,37,50,DAYS,,,,
BBC,BBC-10-152,152,10,,ARM C,3,ARM C,3,Y,Y,Y,Y,08JAN2007,04APR2007,N,Y,23FEB2007,47,,Week 6,6,Average Induration (Elevation) Severity Score,AVGIND,14,DERIVED,Average,1.5,1.5,2,2.0,-0.5,-50,,37-50 DAYS,43,4,37,50,DAYS,,Y,,
BBC,BBC-10-152,152,10,,ARM C,3,ARM C,3,Y,Y,Y,Y,08JAN2007,04APR2007,N,Y,12MAR2007,64,,Week 8,8,Average Induration (Elevation) Severity Score,AVGIND,14,DERIVED,Average,1,1.0,2,2.0,-1,-100,,51-71 DAYS,57,7,51,71,DAYS,,Y,,
BBC,BBC-10-152,152,10,,ARM C,3,ARM C,3,Y,Y,Y,Y,08JAN2007,04APR2007,N,Y,04APR2007,87,,Week 12,12,Average Induration (Elevation) Severity Score,AVGIND,14,DERIVED,Average,0.5,0.5,2,2.0,-1.5,-100,,72-99 DAYS,85,2,72,99,DAYS,,Y,,
BBC,BBC-10-152,152,10,,ARM C,3,ARM C,3,Y,Y,Y,Y,08JAN2007,04APR2007,N,Y,30APR2007,113,,Week 16,16,Average Induration (Elevation) Severity Score,AVGIND,14,DERIVED,Average,1,1.0,2,2.0,-1,-100,,22-36 DAYS POST-LAST-DOSE,115,2,108,122,DAYS,,,,
BBC,BBC-10-152,152,10,,ARM C,3,ARM C,3,Y,Y,Y,Y,08JAN2007,04APR2007,N,Y,08JAN2007,1,,Day 1 Baseline,0,Average Scaling Severity Score,AVGSCAL,15,DERIVED,Average,2,2.0,2,2.0,,,,,,,,,,Y,Y,,
BBC,BBC-10-152,152,10,,ARM C,3,ARM C,3,Y,Y,Y,Y,08JAN2007,04APR2007,N,Y,23JAN2007,16,,Week 2,2,Average Scaling Severity Score,AVGSCAL,15,DERIVED,Average,1.5,1.5,2,2.0,-0.5,-50,,8-22 DAYS,15,1,8,22,DAYS,,Y,,
BBC,BBC-10-152,152,10,,ARM C,3,ARM C,3,Y,Y,Y,Y,08JAN2007,04APR2007,N,Y,,,,Week 4,4,Average Scaling Severity Score,AVGSCAL,15,DERIVED,Average,1.5,1.5,2,2.0,,,LOCF,,,,,,,,Y,,
BBC,BBC-10-152,152,10,,ARM C,3,ARM C,3,Y,Y,Y,Y,08JAN2007,04APR2007,N,Y,13FEB2007,37,,Week 6,6,Average Scaling Severity Score,AVGSCAL,15,DERIVED,Average,0.5,0.5,2,2.0,-1.5,-100,,37-50 DAYS,43,6,37,50,DAYS,,,,
BBC,BBC-10-152,152,10,,ARM C,3,ARM C,3,Y,Y,Y,Y,08JAN2007,04APR2007,N,Y,23FEB2007,47,,Week 6,6,Average Scaling Severity Score,AVGSCAL,15,DERIVED,Average,1.5,1.5,2,2.0,-0.5,-50,,37-50 DAYS,43,4,37,50,DAYS,,Y,,
BBC,BBC-10-152,152,10,,ARM C,3,ARM C,3,Y,Y,Y,Y,08JAN2007,04APR2007,N,Y,12MAR2007,64,,Week 8,8,Average Scaling Severity Score,AVGSCAL,15,DERIVED,Average,1.5,1.5,2,2.0,-0.5,-50,,51-71 DAYS,57,7,51,71,DAYS,,Y,,
BBC,BBC-10-152,152,10,,ARM C,3,ARM C,3,Y,Y,Y,Y,08JAN2007,04APR2007,N,Y,04APR2007,87,,Week 12,12,Average Scaling Severity Score,AVGSCAL,15,DERIVED,Average,1.5,1.5,2,2.0,-0.5,-100,,72-99 DAYS,85,2,72,99,DAYS,,Y,,
BBC,BBC-10-152,152,10,,ARM C,3,ARM C,3,Y,Y,Y,Y,08JAN2007,04APR2007,N,Y,30APR2007,113,,Week 16,16,Average Scaling Severity Score,AVGSCAL,15,DERIVED,Average,1,1.0,2,2.0,-1,-100,,22-36 DAYS POST-LAST-DOSE,115,2,108,122,DAYS,,,,
BBC,BBC-10-152,152,10,,ARM C,3,ARM C,3,Y,Y,Y,Y,08JAN2007,04APR2007,N,Y,08JAN2007,1,,Day 1 Baseline,0,Average CPSS Score,AVGCPSS,16,DERIVED,Average,7,7.0,7,7.0,,,,,,,,,,Y,Y,,
BBC,BBC-10-152,152,10,,ARM C,3,ARM C,3,Y,Y,Y,Y,08JAN2007,04APR2007,N,Y,23JAN2007,16,,Week 2,2,Average CPSS Score,AVGCPSS,16,DERIVED,Average,6.5,6.5,7,7.0,-0.5,-14.3,,8-22 DAYS,15,1,8,22,DAYS,,Y,,
BBC,BBC-10-152,152,10,,ARM C,3,ARM C,3,Y,Y,Y,Y,08JAN2007,04APR2007,N,Y,,,,Week 4,4,Average CPSS Score,AVGCPSS,16,DERIVED,Average,6.5,6.5,7,7.0,,,LOCF,,,,,,,,Y,,
BBC,BBC-10-152,152,10,,ARM C,3,ARM C,3,Y,Y,Y,Y,08JAN2007,04APR2007,N,Y,13FEB2007,37,,Week 6,6,Average CPSS Score,AVGCPSS,16,DERIVED,Average,2.5,2.5,7,7.0,-4.5,-71.4,,37-50 DAYS,43,6,37,50,DAYS,,,,
BBC,BBC-10-152,152,10,,ARM C,3,ARM C,3,Y,Y,Y,Y,08JAN2007,04APR2007,N,Y,23FEB2007,47,,Week 6,6,Average CPSS Score,AVGCPSS,16,DERIVED,Average,4.5,4.5,7,7.0,-2.5,-57.1,,37-50 DAYS,43,4,37,50,DAYS,,Y,,
BBC,BBC-10-152,152,10,,ARM C,3,ARM C,3,Y,Y,Y,Y,08JAN2007,04APR2007,N,Y,12MAR2007,64,,Week 8,8,Average CPSS Score,AVGCPSS,16,DERIVED,Average,3.5,3.5,7,7.0,-3.5,-71.4,,51-71 DAYS,57,7,51,71,DAYS,,Y,,
BBC,BBC-10-152,152,10,,ARM C,3,ARM C,3,Y,Y,Y,Y,08JAN2007,04APR2007,N,Y,04APR2007,87,,Week 12,12,Average CPSS Score,AVGCPSS,16,DERIVED,Average,3,3.0,7,7.0,-4,-100,,72-99 DAYS,85,2,72,99,DAYS,,Y,,
BBC,BBC-10-152,152,10,,ARM C,3,ARM C,3,Y,Y,Y,Y,08JAN2007,04APR2007,N,Y,30APR2007,113,,Week 16,16,Average CPSS Score,AVGCPSS,16,DERIVED,Average,3,3.0,7,7.0,-4,-100,,22-36 DAYS POST-LAST-DOSE,115,2,108,122,DAYS,,,,
BBC,BBC-10-152,152,10,,ARM C,3,ARM C,3,Y,Y,Y,Y,08JAN2007,04APR2007,N,Y,13FEB2007,37,,Week 6,6,Average CPSS Best Score During Treatment,AVGBEST,17,DERIVED,Average,-5.5,-5.5,,0.0,,,,,,,,,,,Y,Improved During Treatment,Y
BBC,BBC-10-152,152,10,,ARM C,3,ARM C,3,Y,Y,Y,Y,08JAN2007,04APR2007,N,Y,,,,,,Average CPSS Relapse at Week 16,AVGRLPS,18,DERIVED,Average,,Y,,0.0,-4,-100,,,,,,,,,,,
BBC,BBC-11-048,048,11,113,ARM B,2,ARM B,2,Y,Y,Y,Y,18JAN2007,09APR2007,N,Y,18JAN2007,1,,Day 1 Baseline,0,Target Plaque 1 Erythema Severity Score,TP1ERY,1,,Target Plaque 1,2,2.0,2,2.0,,,,,,,,,,Y,Y,,
BBC,BBC-11-048,048,11,114,ARM B,2,ARM B,2,Y,Y,Y,Y,18JAN2007,09APR2007,N,Y,01FEB2007,15,,Week 2,2,Target Plaque 1 Erythema Severity Score,TP1ERY,1,,Target Plaque 1,2,2.0,2,2.0,0,0,,8-22 DAYS,15,0,8,22,DAYS,,Y,,
BBC,BBC-11-048,048,11,115,ARM B,2,ARM B,2,Y,Y,Y,Y,18JAN2007,09APR2007,N,Y,14FEB2007,28,,Week 4,4,Target Plaque 1 Erythema Severity Score,TP1ERY,1,,Target Plaque 1,2,2.0,2,2.0,0,0,,23-36 DAYS,29,1,23,36,DAYS,,Y,,
BBC,BBC-11-048,048,11,116,ARM B,2,ARM B,2,Y,Y,Y,Y,18JAN2007,09APR2007,N,Y,01MAR2007,43,,Week 6,6,Target Plaque 1 Erythema Severity Score,TP1ERY,1,,Target Plaque 1,1,1.0,2,2.0,-1,-50,,37-50 DAYS,43,0,37,50,DAYS,,Y,,
BBC,BBC-11-048,048,11,117,ARM B,2,ARM B,2,Y,Y,Y,Y,18JAN2007,09APR2007,N,Y,15MAR2007,57,,Week 8,8,Target Plaque 1 Erythema Severity Score,TP1ERY,1,,Target Plaque 1,1,1.0,2,2.0,-1,-50,,51-71 DAYS,57,0,51,71,DAYS,,Y,,
BBC,BBC-11-048,048,11,118,ARM B,2,ARM B,2,Y,Y,Y,Y,18JAN2007,09APR2007,N,Y,10APR2007,83,,Week 12,12,Target Plaque 1 Erythema Severity Score,TP1ERY,1,,Target Plaque 1,2,2.0,2,2.0,0,0,,72-99 DAYS,85,2,72,99,DAYS,,Y,,
BBC,BBC-11-048,048,11,119,ARM B,2,ARM B,2,Y,Y,Y,Y,18JAN2007,09APR2007,N,Y,08MAY2007,111,,Week 16,16,Target Plaque 1 Erythema Severity Score,TP1ERY,1,,Target Plaque 1,1,1.0,2,2.0,-1,-50,,22-36 DAYS POST-LAST-DOSE,110,1,103,117,DAYS,,,,
BBC,BBC-11-048,048,11,120,ARM B,2,ARM B,2,Y,Y,Y,Y,18JAN2007,09APR2007,N,Y,18JAN2007,1,,Day 1 Baseline,0,Target Plaque 1 Induration (Elevation) Severity Score,TP1IND,2,,Target Plaque 1,3,3.0,3,3.0,,,,,,,,,,Y,Y,,
BBC,BBC-11-048,048,11,121,ARM B,2,ARM B,2,Y,Y,Y,Y,18JAN2007,09APR2007,N,Y,01FEB2007,15,,Week 2,2,Target Plaque 1 Induration (Elevation) Severity Score,TP1IND,2,,Target Plaque 1,3,3.0,3,3.0,0,0,,8-22 DAYS,15,0,8,22,DAYS,,Y,,
BBC,BBC-11-048,048,11,122,ARM B,2,ARM B,2,Y,Y,Y,Y,18JAN2007,09APR2007,N,Y,14FEB2007,28,,Week 4,4,Target Plaque 1 Induration (Elevation) Severity Score,TP1IND,2,,Target Plaque 1,2,2.0,3,3.0,-1,-33.3,,23-36 DAYS,29,1,23,36,DAYS,,Y,,
BBC,BBC-11-048,048,11,123,ARM B,2,ARM B,2,Y,Y,Y,Y,18JAN2007,09APR2007,N,Y,01MAR2007,43,,Week 6,6,Target Plaque 1 Induration (Elevation) Severity Score,TP1IND,2,,Target Plaque 1,3,3.0,3,3.0,0,0,,37-50 DAYS,43,0,37,50,DAYS,,Y,,
BBC,BBC-11-048,048,11,124,ARM B,2,ARM B,2,Y,Y,Y,Y,18JAN2007,09APR2007,N,Y,15MAR2007,57,,Week 8,8,Target Plaque 1 Induration (Elevation) Severity Score,TP1IND,2,,Target Plaque 1,2,2.0,3,3.0,-1,-33.3,,51-71 DAYS,57,0,51,71,DAYS,,Y,,
BBC,BBC-11-048,048,11,125,ARM B,2,ARM B,2,Y,Y,Y,Y,18JAN2007,09APR2007,N,Y,10APR2007,83,,Week 12,12,Target Plaque 1 Induration (Elevation) Severity Score,TP1IND,2,,Target Plaque 1,3,3.0,3,3.0,0,0,,72-99 DAYS,85,2,72,99,DAYS,,Y,,
BBC,BBC-11-048,048,11,126,ARM B,2,ARM B,2,Y,Y,Y,Y,18JAN2007,09APR2007,N,Y,08MAY2007,111,,Week 16,16,Target Plaque 1 Induration (Elevation) Severity Score,TP1IND,2,,Target Plaque 1,3,3.0,3,3.0,0,0,,22-36 DAYS POST-LAST-DOSE,110,1,103,117,DAYS,,,,
BBC,BBC-11-048,048,11,127,ARM B,2,ARM B,2,Y,Y,Y,Y,18JAN2007,09APR2007,N,Y,18JAN2007,1,,Day 1 Baseline,0,Target Plaque 1 Scaling Severity Score,TP1SCAL,3,,Target Plaque 1,1,1.0,1,1.0,,,,,,,,,,Y,Y,,
BBC,BBC-11-048,048,11,128,ARM B,2,ARM B,2,Y,Y,Y,Y,18JAN2007,09APR2007,N,Y,01FEB2007,15,,Week 2,2,Target Plaque 1 Scaling Severity Score,TP1SCAL,3,,Target Plaque 1,1,1.0,1,1.0,0,0,,8-22 DAYS,15,0,8,22,DAYS,,Y,,
BBC,BBC-11-048,048,11,129,ARM B,2,ARM B,2,Y,Y,Y,Y,18JAN2007,09APR2007,N,Y,14FEB2007,28,,Week 4,4,Target Plaque 1 Scaling Severity Score,TP1SCAL,3,,Target Plaque 1,1,1.0,1,1.0,0,0,,23-36 DAYS,29,1,23,36,DAYS,,Y,,
BBC,BBC-11-048,048,11,130,ARM B,2,ARM B,2,Y,Y,Y,Y,18JAN2007,09APR2007,N,Y,01MAR2007,43,,Week 6,6,Target Plaque 1 Scaling Severity Score,TP1SCAL,3,,Target Plaque 1,1,1.0,1,1.0,0,0,,37-50 DAYS,43,0,37,50,DAYS,,Y,,
BBC,BBC-11-048,048,11,131,ARM B,2,ARM B,2,Y,Y,Y,Y,18JAN2007,09APR2007,N,Y,15MAR2007,57,,Week 8,8,Target Plaque 1 Scaling Severity Score,TP1SCAL,3,,Target Plaque 1,1,1.0,1,1.0,0,0,,51-71 DAYS,57,0,51,71,DAYS,,Y,,
BBC,BBC-11-048,048,11,132,ARM B,2,ARM B,2,Y,Y,Y,Y,18JAN2007,09APR2007,N,Y,10APR2007,83,,Week 12,12,Target Plaque 1 Scaling Severity Score,TP1SCAL,3,,Target Plaque 1,1,1.0,1,1.0,0,0,,72-99 DAYS,85,2,72,99,DAYS,,Y,,
BBC,BBC-11-048,048,11,133,ARM B,2,ARM B,2,Y,Y,Y,Y,18JAN2007,09APR2007,N,Y,08MAY2007,111,,Week 16,16,Target Plaque 1 Scaling Severity Score,TP1SCAL,3,,Target Plaque 1,1,1.0,1,1.0,0,0,,22-36 DAYS POST-LAST-DOSE,110,1,103,117,DAYS,,,,
BBC,BBC-11-048,048,11,106,ARM B,2,ARM B,2,Y,Y,Y,Y,18JAN2007,09APR2007,N,Y,18JAN2007,1,,Day 1 Baseline,0,Target Plaque 1 CPSS Score,TP1CPSS,4,,Target Plaque 1,6,6.0,6,6.0,,,,,,,,,,Y,Y,,
BBC,BBC-11-048,048,11,107,ARM B,2,ARM B,2,Y,Y,Y,Y,18JAN2007,09APR2007,N,Y,01FEB2007,15,,Week 2,2,Target Plaque 1 CPSS Score,TP1CPSS,4,,Target Plaque 1,6,6.0,6,6.0,0,0,,8-22 DAYS,15,0,8,22,DAYS,,Y,,
BBC,BBC-11-048,048,11,108,ARM B,2,ARM B,2,Y,Y,Y,Y,18JAN2007,09APR2007,N,Y,14FEB2007,28,,Week 4,4,Target Plaque 1 CPSS Score,TP1CPSS,4,,Target Plaque 1,5,5.0,6,6.0,-1,-16.7,,23-36 DAYS,29,1,23,36,DAYS,,Y,,
BBC,BBC-11-048,048,11,109,ARM B,2,ARM B,2,Y,Y,Y,Y,18JAN2007,09APR2007,N,Y,01MAR2007,43,,Week 6,6,Target Plaque 1 CPSS Score,TP1CPSS,4,,Target Plaque 1,5,5.0,6,6.0,-1,-16.7,,37-50 DAYS,43,0,37,50,DAYS,,Y,,
BBC,BBC-11-048,048,11,110,ARM B,2,ARM B,2,Y,Y,Y,Y,18JAN2007,09APR2007,N,Y,15MAR2007,57,,Week 8,8,Target Plaque 1 CPSS Score,TP1CPSS,4,,Target Plaque 1,4,4.0,6,6.0,-2,-33.3,,51-71 DAYS,57,0,51,71,DAYS,,Y,,
BBC,BBC-11-048,048,11,111,ARM B,2,ARM B,2,Y,Y,Y,Y,18JAN2007,09APR2007,N,Y,10APR2007,83,,Week 12,12,Target Plaque 1 CPSS Score,TP1CPSS,4,,Target Plaque 1,6,6.0,6,6.0,0,0,,72-99 DAYS,85,2,72,99,DAYS,,Y,,
BBC,BBC-11-048,048,11,112,ARM B,2,ARM B,2,Y,Y,Y,Y,18JAN2007,09APR2007,N,Y,08MAY2007,111,,Week 16,16,Target Plaque 1 CPSS Score,TP1CPSS,4,,Target Plaque 1,5,5.0,6,6.0,-1,-16.7,,22-36 DAYS POST-LAST-DOSE,110,1,103,117,DAYS,,,,
BBC,BBC-11-048,048,11,110,ARM B,2,ARM B,2,Y,Y,Y,Y,18JAN2007,09APR2007,N,Y,15MAR2007,57,,Week 8,8,Target Plaque 1 CPSS Best Score During Treatment,TP1BEST,5,DERIVED,Target Plaque 1,-2,-2.0,,,,,,,,,,,,,Y,Improved During Treatment,Y
BBC,BBC-11-048,048,11,112,ARM B,2,ARM B,2,Y,Y,Y,Y,18JAN2007,09APR2007,N,Y,,,,,,Target Plaque 1 CPSS Relapse at Week 16,TP1RLPS,6,DERIVED,Target Plaque 1,,Y,,,-1,-16.7,,,,,,,,,,,
BBC,BBC-11-048,048,11,148,ARM B,2,ARM B,2,Y,Y,Y,Y,18JAN2007,09APR2007,N,Y,18JAN2007,1,,Day 1 Baseline,0,Target Plaque 2 Erythema Severity Score,TP2ERY,7,,Target Plaque 2,2,2.0,2,2.0,,,,,,,,,,Y,Y,,
BBC,BBC-11-048,048,11,149,ARM B,2,ARM B,2,Y,Y,Y,Y,18JAN2007,09APR2007,N,Y,01FEB2007,15,,Week 2,2,Target Plaque 2 Erythema Severity Score,TP2ERY,7,,Target Plaque 2,2,2.0,2,2.0,0,0,,8-22 DAYS,15,0,8,22,DAYS,,Y,,
BBC,BBC-11-048,048,11,150,ARM B,2,ARM B,2,Y,Y,Y,Y,18JAN2007,09APR2007,N,Y,14FEB2007,28,,Week 4,4,Target Plaque 2 Erythema Severity Score,TP2ERY,7,,Target Plaque 2,2,2.0,2,2.0,0,0,,23-36 DAYS,29,1,23,36,DAYS,,Y,,
BBC,BBC-11-048,048,11,151,ARM B,2,ARM B,2,Y,Y,Y,Y,18JAN2007,09APR2007,N,Y,01MAR2007,43,,Week 6,6,Target Plaque 2 Erythema Severity Score,TP2ERY,7,,Target Plaque 2,1,1.0,2,2.0,-1,-50,,37-50 DAYS,43,0,37,50,DAYS,,Y,,
BBC,BBC-11-048,048,11,152,ARM B,2,ARM B,2,Y,Y,Y,Y,18JAN2007,09APR2007,N,Y,15MAR2007,57,,Week 8,8,Target Plaque 2 Erythema Severity Score,TP2ERY,7,,Target Plaque 2,1,1.0,2,2.0,-1,-50,,51-71 DAYS,57,0,51,71,DAYS,,Y,,
BBC,BBC-11-048,048,11,153,ARM B,2,ARM B,2,Y,Y,Y,Y,18JAN2007,09APR2007,N,Y,10APR2007,83,,Week 12,12,Target Plaque 2 Erythema Severity Score,TP2ERY,7,,Target Plaque 2,2,2.0,2,2.0,0,0,,72-99 DAYS,85,2,72,99,DAYS,,Y,,
BBC,BBC-11-048,048,11,154,ARM B,2,ARM B,2,Y,Y,Y,Y,18JAN2007,09APR2007,N,Y,08MAY2007,111,,Week 16,16,Target Plaque 2 Erythema Severity Score,TP2ERY,7,,Target Plaque 2,1,1.0,2,2.0,-1,-50,,22-36 DAYS POST-LAST-DOSE,110,1,103,117,DAYS,,,,
BBC,BBC-11-048,048,11,155,ARM B,2,ARM B,2,Y,Y,Y,Y,18JAN2007,09APR2007,N,Y,18JAN2007,1,,Day 1 Baseline,0,Target Plaque 2 Induration (Elevation) Severity Score,TP2IND,8,,Target Plaque 2,3,3.0,3,3.0,,,,,,,,,,Y,Y,,
BBC,BBC-11-048,048,11,156,ARM B,2,ARM B,2,Y,Y,Y,Y,18JAN2007,09APR2007,N,Y,01FEB2007,15,,Week 2,2,Target Plaque 2 Induration (Elevation) Severity Score,TP2IND,8,,Target Plaque 2,3,3.0,3,3.0,0,0,,8-22 DAYS,15,0,8,22,DAYS,,Y,,
BBC,BBC-11-048,048,11,157,ARM B,2,ARM B,2,Y,Y,Y,Y,18JAN2007,09APR2007,N,Y,14FEB2007,28,,Week 4,4,Target Plaque 2 Induration (Elevation) Severity Score,TP2IND,8,,Target Plaque 2,2,2.0,3,3.0,-1,-33.3,,23-36 DAYS,29,1,23,36,DAYS,,Y,,
BBC,BBC-11-048,048,11,158,ARM B,2,ARM B,2,Y,Y,Y,Y,18JAN2007,09APR2007,N,Y,01MAR2007,43,,Week 6,6,Target Plaque 2 Induration (Elevation) Severity Score,TP2IND,8,,Target Plaque 2,3,3.0,3,3.0,0,0,,37-50 DAYS,43,0,37,50,DAYS,,Y,,
BBC,BBC-11-048,048,11,159,ARM B,2,ARM B,2,Y,Y,Y,Y,18JAN2007,09APR2007,N,Y,15MAR2007,57,,Week 8,8,Target Plaque 2 Induration (Elevation) Severity Score,TP2IND,8,,Target Plaque 2,2,2.0,3,3.0,-1,-33.3,,51-71 DAYS,57,0,51,71,DAYS,,Y,,
BBC,BBC-11-048,048,11,160,ARM B,2,ARM B,2,Y,Y,Y,Y,18JAN2007,09APR2007,N,Y,10APR2007,83,,Week 12,12,Target Plaque 2 Induration (Elevation) Severity Score,TP2IND,8,,Target Plaque 2,3,3.0,3,3.0,0,0,,72-99 DAYS,85,2,72,99,DAYS,,Y,,
BBC,BBC-11-048,048,11,161,ARM B,2,ARM B,2,Y,Y,Y,Y,18JAN2007,09APR2007,N,Y,08MAY2007,111,,Week 16,16,Target Plaque 2 Induration (Elevation) Severity Score,TP2IND,8,,Target Plaque 2,3,3.0,3,3.0,0,0,,22-36 DAYS POST-LAST-DOSE,110,1,103,117,DAYS,,,,
